ACCELEROMETER X,ACCELEROMETER Y,ACCELEROMETER Z,GRAVITY X,GRAVITY Y,GRAVITY Z,LINEAR ACCELERATION X,LINEAR ACCELERATION Y,LINEAR ACCELERATION Z,GYROSCOPE X,GYROSCOPE Y,GYROSCOPE Z,LIGHT,MAGNETIC FIELD X,MAGNETIC FIELD Y,MAGNETIC FIELD Z,ORIENTATION Z,ORIENTATION X,ORIENTATION Y,PROXIMITY,ATMOSPHERIC PRESSURE,SOUND LEVEL,LOCATION Latitude : ,LOCATION Longitude : ,LOCATION Altitude,LOCATION Altitude-google,LOCATION Altitude-atmospheric pressure,LOCATION Speed,LOCATION Accuracy,LOCATION ORIENTATION,Satellites in range,Time,YYYY-MO-DD HH-MI-SS_SSS
-0.1507,2.3521,9.0281,-1.3193,1.9617,9.5174,0.0849,0.5686,-0.7607,-0.7094,2.0057,-0.2944,4848,-20.84,4.91,9.22,83.08,-16.18,-2.99,3.1,983.27,48.01,42.498104,-83.44128,794.74,NaN,,0,27.664516,,14 / 18,19,2018-07-24 13:15:23:607
1.1222,0.256,7.5087,5.0119,2.1785,8.1428,-3.6879,-1.7579,2.1964,-1.1028,-4.2549,0.9273,5126,-27.35,20.55,10.94,53.17,-12.84,-31.61,3.1,983.26,47.497,42.498104,-83.44128,794.74,NaN,,0,27.664516,,14 / 18,519,2018-07-24 13:15:24:107
-0.1842,5.6136,8.8893,1.0359,3.4558,9.1189,-1.2726,0.934,1.1266,0.0617,0.5348,0.7036,3071,-40.26,3.94,4.82,82.16,-21.71,-14.05,3.1,983.23,49.659,42.498104,-83.44128,794.74,NaN,,0,27.664516,,14 / 18,1018,2018-07-24 13:15:24:606
-0.6532,3.2064,9.3416,-0.611,3.1028,9.2828,-0.0032,0.0038,0.007,2.00E-04,0.0017,0,2466,-23.01,12.38,-22.67,53.4,-18.42,3.75,3.1,983.29,51.387,42.498104,-83.44128,794.74,NaN,,0,27.664516,,14 / 18,1518,2018-07-24 13:15:25:106
-0.6413,3.1657,9.4301,-0.6136,3.1054,9.2817,0.0012,0.0077,0.0319,7.00E-04,0.0013,2.00E-04,3780,-22.97,13.28,-23.36,52,-18.46,3.78,3.1,983.29,51.475,42.498104,-83.44128,794.74,NaN,,0,27.664516,,14 / 18,2018,2018-07-24 13:15:25:606
-0.6437,3.1633,9.478,-0.616,3.1109,9.2797,-0.0082,-0.002,0.0048,-2.00E-04,7.00E-04,4.00E-04,3791,-23.73,11.89,-22.75,54.52,-18.49,3.8,3.1,983.28,50.922,42.498104,-83.44128,794.74,914.0059719,,0,27.664516,,15 / 18,2518,2018-07-24 13:15:26:106
-0.6293,3.1753,9.4588,-0.6139,3.1075,9.281,0.0041,-0.0206,0.0148,-2.00E-04,7.00E-04,2.00E-04,3788,-23.68,12.12,-21.8,54.91,-18.49,3.78,3.1,983.27,52.68,42.498104,-83.44128,794.74,914.0059719,,0,27.664516,,15 / 18,3019,2018-07-24 13:15:26:607
-0.6843,3.1872,9.3703,-0.6174,3.1116,9.2794,0.0103,-0.0177,-0.0158,-6.00E-04,0.0021,6.00E-04,3777,-23.25,12.24,-19.51,54.64,-18.5,3.81,3.1,983.29,51.917,42.498104,-83.44128,794.74,914.0059719,,0,27.664516,,15 / 18,3518,2018-07-24 13:15:27:106
-0.7011,3.685,9.5785,-0.6482,3.3103,9.2083,-0.0587,0.3184,-0.1265,0.0021,-0.0014,0.0041,3777,-23.31,14.4,-19.89,51.61,-19.24,3.94,3.1,983.28,53.351,42.498104,-83.44128,794.74,914.0059719,,0,27.664516,,15 / 18,4018,2018-07-24 13:15:27:606
-0.7394,3.6945,9.2602,-0.7026,3.5932,9.0975,0.0041,-0.0733,0.035,-0.0054,0.0066,0.0141,3769,-22.72,11.99,-19.32,54.42,-21.42,4.39,3.1,983.29,52.178,42.498104,-83.44128,794.74,914.0059719,,0,27.664516,,15 / 18,4518,2018-07-24 13:15:28:106
-0.6006,3.1298,9.5139,-0.6676,3.3813,9.181,0.0668,-0.3394,0.0769,-4.00E-04,-2.00E-04,0.0127,3784,-21.76,12.92,-22.44,51.62,-20.67,4.3,3.1,983.27,51.238,42.498104,-83.44128,794.74,914.0059719,,0,27.664516,,15 / 18,5018,2018-07-24 13:15:28:606
-0.5838,2.9934,9.3846,-0.6341,3.1567,9.263,0.0535,-0.173,0.0322,-8.00E-04,-2.00E-04,0.0094,3784,-21.87,12.34,-19.89,53.42,-18.78,3.92,3.1,983.29,51.508,42.498104,-83.44127,793.53,914.0059719,,1.26,10.374194,97.8,15 / 18,5519,2018-07-24 13:15:29:107
-0.6293,3.0413,9.466,-0.6169,3.0348,9.3048,0.0168,-0.0435,0.0103,0.0023,-4.00E-04,0.0025,3785,-22.59,12.62,-19.61,54.32,-18.08,3.82,3.1,983.28,54.971,42.498104,-83.44127,793.53,914.0059719,,1.26,10.374194,97.8,15 / 18,6018,2018-07-24 13:15:29:606
-0.6939,3.125,9.2578,-0.6111,3.0239,9.3088,0.013,0.0803,0.0312,0.0035,-0.0065,-0.0036,3799,-20.88,11.81,-21.16,51.99,-17.96,3.76,3.1,983.29,51.367,42.498104,-83.44127,793.53,914.0059719,,1.26,10.374194,97.8,15 / 18,6519,2018-07-24 13:15:30:107
-0.6748,3.338,9.454,-0.6213,3.1646,9.2612,-0.0151,0.1136,-0.0084,7.00E-04,3.00E-04,-0.0103,3795,-21.78,12.42,-19.82,53.4,-18.65,3.79,3.1,983.27,50.95,42.498104,-83.44127,793.53,914.0059719,,1.26,10.374194,97.8,15 / 18,7018,2018-07-24 13:15:30:606
-0.6604,3.3212,9.4875,-0.6293,3.2241,9.2401,-0.0158,0.0242,0.0045,0,-0.0044,-0.0156,3803,-20.12,12.37,-20.8,50.26,-19.19,3.9,3.1,983.28,52,42.498104,-83.44126,796.21,914.0059719,,1.55,10.374194,96.9,15 / 18,7518,2018-07-24 13:15:31:106
-0.5838,3.216,9.5809,-0.6207,3.1747,9.2578,-0.0229,-0.0129,0.0111,9.00E-04,-0.0042,-0.0183,3803,-21.02,11.46,-21.25,53.6,-18.92,3.81,3.1,983.28,56.063,42.498104,-83.44126,796.21,914.0059719,,1.55,10.374194,96.9,15 / 18,8018,2018-07-24 13:15:31:606
-0.6461,3.0269,9.3583,-0.6035,3.1052,9.2825,0.0177,-0.1343,0.0209,0.0053,-0.0152,-0.0226,3874,-21.38,9.98,-21.38,54.89,-18.46,3.72,3.1,983.29,52.288,42.498104,-83.44126,796.21,914.0059719,,1.55,10.374194,96.9,14 / 18,8519,2018-07-24 13:15:32:107
-0.5695,3.1394,9.5378,-0.5977,3.0321,9.307,0.0083,0.0952,-0.0237,0.0061,-0.0079,-0.024,3889,-22.45,10.77,-19.11,55.61,-17.93,3.7,3.1,983.26,51.526,42.498104,-83.44126,796.21,914.0059719,,1.55,10.374194,96.9,14 / 18,9019,2018-07-24 13:15:32:607
-0.6461,3.7184,9.2363,-0.6182,3.2945,9.216,-0.0457,0.3555,-0.1386,0.0031,-0.013,-0.0362,3885,-21.35,9.45,-19.62,56.58,-19.63,3.84,3.1,983.27,51.793,42.498104,-83.44125,803.19,914.0059719,,1.66,10.374194,95.2,14 / 18,9518,2018-07-24 13:15:33:106
-0.457,3.6826,9.4397,-0.5628,3.4922,9.1465,0.1223,0.0566,0.0419,0.0033,-0.0193,-0.0651,3878,-20.93,9.24,-18.12,57.07,-20.8,3.65,3.1,983.27,50.979,42.498104,-83.44125,803.19,914.0059719,,1.66,10.374194,95.2,14 / 18,10018,2018-07-24 13:15:33:606
-0.2273,3.3188,9.3344,-0.3453,3.3863,9.197,0.0982,-0.0752,-0.0063,0.0106,-0.0537,-0.1586,3859,-22.56,9.52,-17.33,57.67,-20.2,2.15,3.1,983.26,53.108,42.498104,-83.44125,803.19,914.0059719,,1.66,10.374194,95.2,14 / 18,10518,2018-07-24 13:15:34:106
-0.4164,3.2686,9.3512,-0.3832,3.329,9.2164,-0.0168,-0.1011,-0.0207,0.0127,-0.0492,-0.2013,3833,-23.06,9.51,-17.78,57.28,-19.95,2.27,3.1,983.26,53.237,42.498104,-83.44125,803.19,914.0059719,,1.66,10.374194,95.2,14 / 18,11019,2018-07-24 13:15:34:607
-0.2058,3.0126,9.32,-0.3265,3.215,9.2589,0.1323,-0.2332,-0.0118,0.0147,-0.0657,-0.2284,3837,-19.05,6.41,-16.1,61.33,-19.14,2.02,3.1,983.26,52.039,42.4981,-83.44124,807.59,914.0059719,,3.92,10.374194,113.7,14 / 18,11519,2018-07-24 13:15:35:107
-0.1627,3.5797,9.3918,-0.3078,3.3151,9.2242,0.0918,0.1981,-0.0524,0.0184,-0.0879,-0.2628,3822,-20.07,5.09,-18.25,63.09,-19.41,1.99,3.1,983.26,52.54,42.4981,-83.44124,807.59,914.0059719,,3.92,10.374194,113.7,14 / 18,12018,2018-07-24 13:15:35:606
-0.0526,3.6682,9.3966,-0.2058,3.4378,9.182,0.1346,0.1155,-0.0321,0.0214,-0.1001,-0.3337,3758,-19.34,5.48,-15.02,63.14,-20.52,1.28,3.1,983.26,52.781,42.498096,-83.44122,807.4,914.0059719,,4.03,10.374194,114.6,14 / 18,12518,2018-07-24 13:15:36:106
-0.0838,3.4433,9.2841,-0.1598,3.5131,9.1544,0.0905,-0.0723,-0.003,0.0284,-0.1115,-0.3817,3668,-17.06,3.99,-14.76,62.56,-20.81,0.99,3.1,983.25,52.566,42.498096,-83.44122,807.4,914.0059719,,4.03,10.374194,114.6,14 / 18,13019,2018-07-24 13:15:36:607
-0.1555,3.7567,9.2985,-0.1484,3.6155,9.1147,0.0335,0.1092,-0.0137,0.0306,-0.125,-0.3956,3615,-13.89,0.5,-16.05,64.69,-21.63,0.93,3.1,983.24,53.989,42.498093,-83.441216,806.8,914.0059719,,4.68,10.374194,114.1,14 / 18,13519,2018-07-24 13:15:37:107
-0.1244,3.9434,9.1621,-0.2456,3.7768,9.0469,0.1341,0.0219,-0.0151,0.0243,-0.1144,-0.3414,3593,-12.25,1.24,-16.92,59.59,-22.49,1.51,3.1,983.25,54.574,42.498093,-83.441216,806.8,914.0059719,,4.68,10.374194,114.1,14 / 18,14018,2018-07-24 13:15:37:606
-0.4451,3.9027,9.1549,-0.3733,3.8504,9.0114,-0.0482,-0.042,-0.0367,0.0143,-0.0903,-0.2726,3526,-7.86,1.37,-17.83,47.8,-23.07,2.12,3.1,983.23,54.779,42.49808,-83.4412,802.95,914.0059719,,7.78,10.374194,164.1,14 / 18,14518,2018-07-24 13:15:38:106
-0.7346,3.6682,9.265,-0.561,3.6789,9.0731,-0.1136,-0.1522,0.0544,0.0017,-0.0466,-0.1687,3490,-7.99,0.55,-16.85,51.15,-22.29,3.19,3.1,983.25,53.197,42.49808,-83.4412,802.95,914.0059719,,7.78,10.374194,164.1,14 / 18,15018,2018-07-24 13:15:38:606
-0.871,3.1705,9.5378,-0.6856,3.496,9.1366,-0.181,-0.3975,0.255,0.0027,-0.0262,-0.0376,3478,-7.62,2.13,-17.56,49.18,-20.88,4.29,3.1,983.23,53.021,42.498055,-83.44119,803.35,914.0059719,,10.04,10.374194,162.1,14 / 18,15518,2018-07-24 13:15:39:106
-0.7155,2.9839,9.4397,-0.6991,3.364,9.1851,0.042,-0.5519,0.1821,-0.0224,-0.0118,-0.013,3467,-7.61,3.92,-14.75,46.16,-20.56,4.46,3.1,983.24,52.501,42.498055,-83.44119,803.35,914.0059719,,10.04,10.374194,162.1,14 / 18,16019,2018-07-24 13:15:39:607
-0.804,3.0413,9.3703,-0.6868,3.1196,9.2718,-0.0372,-0.1752,0.0142,-0.0142,-0.0107,-0.0152,3456,-5.14,2.24,-17.6,40.14,-18.55,4.24,3.1,983.26,52.686,42.498028,-83.441185,803.32,914.0059719,,11.74,10.374194,172.8,14 / 18,16518,2018-07-24 13:15:40:106
-0.6174,2.9862,9.6526,-0.6425,2.9746,9.3225,0.059,-0.0515,0.1054,-0.0077,-0.0061,-0.0146,3448,-6.5,1.88,-17.82,48.71,-17.82,4.04,3.1,983.24,52.39,42.498028,-83.441185,803.32,914.0059719,,11.74,10.374194,172.8,14 / 18,17018,2018-07-24 13:15:40:606
-0.8231,2.9408,9.4397,-0.7286,2.9171,9.3344,-0.0467,7.00E-04,0.0661,-0.003,-0.0018,0.011,3444,-5.59,2.72,-18.71,41.6,-17.32,4.36,3.1,983.24,51.918,42.497997,-83.441185,802.26,914.0059719,,11.99,10.374194,177.1,13 / 18,17519,2018-07-24 13:15:41:107
-1.3232,2.8163,9.5067,-0.9244,2.864,9.3334,-0.4405,-0.1135,-0.0258,-0.003,0.0365,0.0611,3452,-6.27,2.69,-17,44.55,-17.01,5.28,3.1,983.24,52.468,42.497997,-83.441185,802.26,914.0059719,,11.99,10.374194,177.1,13 / 18,18018,2018-07-24 13:15:41:606
-1.9286,2.601,9.5282,-1.26,2.8046,9.3122,-0.5537,-0.2024,0.0397,-0.0024,0.0636,0.2014,3452,-5.52,1.03,-21.62,51.95,-16.62,7.71,3.1,983.25,53.056,42.497963,-83.441185,803.87,914.0059719,,12.46,10.374194,178.6,13 / 18,18519,2018-07-24 13:15:42:107
-2.3186,2.4957,9.3894,-1.65,2.7606,9.2643,-0.5369,-0.3196,0.1198,-0.0274,0.1061,0.2839,3444,-6.83,0.13,-21.49,62.44,-16.29,9.82,3.1,983.25,53.133,42.497963,-83.441185,803.87,914.0059719,,12.46,10.374194,178.6,13 / 18,19018,2018-07-24 13:15:42:606
-2.3139,2.3952,10.148,-1.7828,2.7153,9.2531,-0.5249,-0.427,0.4287,-0.0515,0.087,0.3442,3465,-7.45,0.37,-23.95,61.65,-16.07,10.91,3.1,983.27,53.675,42.497932,-83.441185,804.77,914.0059719,,12.74,10.374194,175.4,14 / 18,19518,2018-07-24 13:15:43:106
-2.5579,2.388,9.5067,-1.8842,2.8669,9.187,-0.5547,-0.5663,-0.0455,0.0047,0.1416,0.3733,3533,-10.06,0.27,-23.45,67.52,-16.67,11.22,3.1,983.27,54.076,42.497932,-83.441185,804.77,914.0059719,,12.74,10.374194,175.4,14 / 18,20018,2018-07-24 13:15:43:606
-2.4263,2.3426,9.1669,-1.8012,2.9509,9.1771,-0.4251,-0.6987,0.1777,-0.0523,0.1202,0.3859,3623,-13.8,1.03,-24.3,68.47,-17.52,11.06,3.1,983.27,56.822,42.4979,-83.44117,797.75,914.0059719,,13.18,10.374194,161.6,14 / 18,20518,2018-07-24 13:15:44:106
-2.2875,2.4837,9.2865,-1.8027,2.9873,9.165,-0.4996,-0.6046,0.2714,-0.0215,0.0994,0.3775,3746,-15.26,2.88,-23.74,64.98,-17.49,11.28,3.1,983.29,57.465,42.4979,-83.44117,797.75,914.0059719,,13.18,10.374194,161.6,14 / 18,21018,2018-07-24 13:15:44:606
-2.6106,2.7948,9.5234,-1.9054,3.1002,9.1065,-0.6092,-0.4005,-0.2826,-0.057,0.1342,0.3658,3790,-18.06,4.5,-25.25,65.49,-18.43,11.82,3.1,983.26,56.747,42.497875,-83.44114,796.26,914.0059719,,12.13,10.374194,142.9,15 / 18,21519,2018-07-24 13:15:45:107
-1.6606,2.936,10.0427,-1.7945,3.1769,9.1026,0.052,-0.3034,0.1497,-0.0641,0.0882,0.314,3817,-20.18,6.65,-24.21,61.8,-19.05,11.24,3.1,983.26,56.839,42.497875,-83.44114,796.26,914.0059719,,12.13,10.374194,142.9,15 / 18,22019,2018-07-24 13:15:45:607
-1.0983,3.0102,9.5378,-1.6622,3.1661,9.1315,0.4748,-0.3644,-0.0184,0.029,0.0512,0.1477,3829,-21.9,11.48,-23.18,57.45,-18.84,10.32,3.1,983.27,59.446,42.49786,-83.44109,792.42,914.0059719,,13.5,10.374194,119.1,16 / 18,22519,2018-07-24 13:15:46:107
-1.3519,3.0389,9.6407,-1.6938,3.2845,9.0837,0.3836,-0.2118,0.1299,0.0137,0.0194,0.0664,3814,-22.78,10.97,-22.72,58.37,-19.57,10.56,3.1,983.25,59.226,42.49786,-83.44109,792.42,914.0059719,,13.5,10.374194,119.1,16 / 18,23018,2018-07-24 13:15:46:606
-1.3687,2.9982,10.0307,-1.631,3.1964,9.1265,0.3097,-0.2658,0.5353,-0.0103,0.0151,0.0316,3802,-22.02,12.51,-22.1,53.87,-19.44,9.98,3.1,983.26,56.931,42.497856,-83.44104,792.42,914.0059719,,14.72,10.374194,102.6,16 / 18,23518,2018-07-24 13:15:47:106
-1.3878,2.9934,9.4947,-1.5671,3.2068,9.1341,0.1503,-0.3508,0.2027,0.0269,-0.0054,0.0108,3799,-19.98,10.98,-25.22,54.12,-18.97,9.73,3.1,983.28,55.661,42.497856,-83.44104,792.42,914.0059719,,14.72,10.374194,102.6,16 / 18,24018,2018-07-24 13:15:47:606
-1.127,2.7302,9.8584,-1.5111,3.1767,9.154,0.2816,-0.5832,0.2811,-0.023,0.0489,-0.0136,3802,-19.98,9.28,-26.57,56.31,-18.9,9.37,3.1,983.28,55.619,42.497856,-83.44099,790.09,914.0059719,,15.62,10.374194,92.7,16 / 18,24519,2018-07-24 13:15:48:107
-1.3232,2.7924,9.8632,-1.375,3.1199,9.1949,0.1892,-0.4767,0.3568,0.0108,-0.005,-6.00E-04,3806,-21.61,9.49,-26.11,53.52,-18.61,8.54,3.1,983.3,55.555,42.497856,-83.44099,790.09,912.5245476,,15.62,10.374194,92.7,16 / 18,25018,2018-07-24 13:15:48:606
-0.9332,2.3497,9.3751,-1.274,3.1111,9.2124,0.4289,-0.741,0.1436,0.0184,-0.0266,-0.001,3836,-22.88,10.75,-28.45,55.59,-18.5,7.87,3.1,983.3,56.944,42.497864,-83.440926,790.24,912.5245476,,15.95,10.374194,89.7,16 / 18,25518,2018-07-24 13:15:49:106
-0.9428,2.6967,10.0379,-1.0903,2.8782,9.3112,0.2803,-0.5828,0.3621,-0.0044,0.0068,-0.0116,3825,-23.47,11.15,-25.79,56.11,-17.34,6.74,3.1,983.29,56.228,42.497864,-83.440926,790.24,912.5245476,,15.95,10.374194,89.7,16 / 18,26019,2018-07-24 13:15:49:607
-1.261,2.857,9.5545,-1.0171,2.7198,9.3669,-0.1906,0.0486,-0.0515,-0.0034,-0.003,0.0141,3772,-23.65,9.46,-26.22,57.71,-16.2,6.17,3.1,983.28,56.313,42.497868,-83.44087,789.75,912.5245476,,14.58,10.374194,89.1,18 / 18,26518,2018-07-24 13:15:50:106
-1.3615,2.7494,9.5234,-0.9873,2.6611,9.3869,-0.3428,-0.0313,-0.2844,-0.0099,-0.002,0.042,3508,-21.22,11.55,-26.04,52.65,-15.86,5.99,3.1,983.29,55.127,42.497868,-83.44087,789.75,912.5245476,,14.58,10.374194,89.1,18 / 18,27018,2018-07-24 13:15:50:606
-1.608,2.8929,9.3464,-1.0815,2.6859,9.3694,-0.4617,0.2094,-0.1928,-0.0407,0.0988,0.1047,3405,-20.84,10.98,-27.91,53.92,-15.9,6.58,3.1,983.29,54.43,42.49787,-83.44083,791,912.5245476,,13.03,10.374194,88.9,18 / 18,27518,2018-07-24 13:15:51:106
-2.1368,3.0772,9.277,-1.2194,2.6993,9.3486,-0.8789,0.1074,0.0573,-0.016,0.0705,0.213,3726,-20.78,13.31,-26.39,51.95,-15.97,7.24,3.1,983.31,56.536,42.49787,-83.44083,791,912.5245476,,13.03,10.374194,88.9,18 / 18,28019,2018-07-24 13:15:51:607
-2.455,2.9623,8.6764,-1.2878,3.0375,9.235,-0.8848,-0.0626,-0.6125,0.0304,0.1112,0.2273,3836,-24.99,15.58,-22.36,53.5,-17.19,7.28,3.1,983.31,57.801,42.497875,-83.44078,792.53,912.5245476,,12.74,10.374194,86.2,18 / 18,28519,2018-07-24 13:15:52:107
-1.9478,3.0532,8.7864,-1.3392,3.1118,9.2029,-0.7632,0.0254,0.2331,-0.0097,0.0461,0.2702,3795,-24.6,16.72,-22.04,51.94,-18.56,8.41,3.1,983.32,57.935,42.497875,-83.44078,792.53,912.5245476,,12.74,10.374194,86.2,18 / 18,29021,2018-07-24 13:15:52:609
-1.9597,3.0006,8.6859,-1.3041,3.1309,9.2015,-0.6112,0.1748,0.3453,-0.0602,0.1122,0.2269,3779,-24.54,19.71,-22.1,48.32,-18.62,8.07,3.1,983.27,58.42,42.497887,-83.440735,794.48,912.5245476,,13.68,10.374194,77.4,18 / 18,29518,2018-07-24 13:15:53:106
-1.2754,4.2233,9.3368,-1.4005,3.3778,9.0994,-0.2324,0.4449,-0.4308,-0.001,0.1139,0.2682,3757,-24.59,21.02,-22.56,47.16,-19.77,8.78,3.1,983.25,57.432,42.497887,-83.440735,794.48,912.5245476,,13.68,10.374194,77.4,18 / 18,30018,2018-07-24 13:15:53:606
-2.613,3.5127,9.5713,-1.5521,3.3553,9.0831,-1.0604,0.1259,0.1619,-0.0091,0.0715,0.2635,3687,-22.07,23.31,-23.48,42.27,-19.76,9.58,3.1,983.29,58.753,42.49791,-83.4407,792.59,912.5245476,,15.73,10.374194,63,18 / 18,30518,2018-07-24 13:15:54:106
-2.0626,3.5462,9.6431,-1.5622,3.5163,9.0203,-0.5618,-0.0213,0.3034,0.0133,0.0723,0.2365,3660,-21.59,24.59,-24.36,39.97,-20.67,9.77,3.1,983.26,55.565,42.49791,-83.4407,792.59,912.5245476,,15.73,10.374194,63,18 / 18,31019,2018-07-24 13:15:54:607
-1.2682,3.1298,9.5139,-1.4386,3.4963,9.0486,0.1303,-0.5506,0.3204,-0.0576,0.0534,0.1273,3645,-19.11,26.15,-22.94,35.54,-20.89,9.03,3.1,983.24,53.812,42.49794,-83.44065,793.61,912.5245476,,17.35,10.374194,50.9,18 / 18,31519,2018-07-24 13:15:55:107
-0.8183,2.8187,9.8776,-1.3028,3.3304,9.1313,0.4469,-0.6437,0.4171,-0.0097,0.0338,0.0387,3649,-15.58,24.13,-29.86,32.35,-20.16,8.45,3.1,983.2,55.142,42.49794,-83.44065,793.61,912.5245476,,17.35,10.374194,50.9,18 / 18,32018,2018-07-24 13:15:55:606
-0.28,2.3354,9.4971,-1.1596,3.2016,9.1965,0.9432,-0.9658,0.2777,-0.0036,-0.0056,0.0015,3672,-17.32,24.02,-29.34,32.1,-19.39,7.83,3.1,983.16,53.272,42.498013,-83.44061,793.57,912.5245476,,18.68,10.374194,40.1,18 / 18,32518,2018-07-24 13:15:56:106
-0.1675,2.6201,9.5545,-1.0018,3.0038,9.2814,0.8629,-0.5133,-0.0507,0.0066,-0.0309,-0.0319,3676,-18.51,24.92,-29.24,33.55,-17.9,6.46,3.1,983.17,54.53,42.498013,-83.44061,793.57,912.5245476,,18.68,10.374194,40.1,18 / 18,33019,2018-07-24 13:15:56:607
0.3565,2.7494,9.5115,-0.5428,2.7978,9.3834,0.9829,-0.0937,-0.0142,-0.0046,-0.0616,-0.1576,3671,-18.08,24.7,-26.66,32.1,-16.67,3.62,3.1,983.18,54.881,42.498055,-83.4406,792.9,912.5245476,,17.42,10.374194,24.7,17 / 18,33518,2018-07-24 13:15:57:106
0.4092,2.6584,9.4325,-0.3532,2.7278,9.413,0.765,-0.1416,-0.084,0.0086,-0.0629,-0.23,3664,-19.21,22.94,-28.58,34.33,-16.32,2.91,3.1,983.2,55.232,42.498055,-83.4406,792.9,912.5245476,,17.42,10.374194,24.7,17 / 18,34018,2018-07-24 13:15:57:606
1.1988,2.4072,9.8848,-0.1074,2.6778,9.4334,1.3473,-0.2761,0.2859,0.0013,-0.0753,-0.3349,3705,-20.59,22.57,-27.09,35.9,-15.85,0.65,3.1,983.18,54.662,42.49809,-83.44056,792.24,912.5245476,,16.16,10.374194,32.6,17 / 18,34519,2018-07-24 13:15:58:107
1.3041,2.4024,10.349,-0.0042,2.7852,9.4028,1.1505,-0.5071,0.6672,0.0412,-0.0757,-0.4471,3678,-21.02,20.65,-26.87,37.26,-16.18,0.12,3.1,983.21,55.046,42.49809,-83.44056,792.24,912.5245476,,16.16,10.374194,32.6,17 / 18,35018,2018-07-24 13:15:58:606
0.9619,2.199,9.5809,0.0421,2.9118,9.3643,0.9085,-0.8391,0.2383,0.0497,-0.1042,-0.4943,3670,-24.43,16.87,-27.05,44.63,-17.04,-0.24,3.1,983.21,55.302,42.498104,-83.44051,795.82,912.5245476,,15.05,10.374194,60.9,17 / 18,35519,2018-07-24 13:15:59:107
0.9236,1.9382,9.9996,0.1107,2.9802,9.3422,0.6659,-1.068,0.3626,0.0314,-0.1148,-0.4827,3826,-23.96,13.61,-25.34,48.31,-17.75,-0.81,3.1,983.24,55.743,42.498104,-83.44051,795.82,912.5245476,,15.05,10.374194,60.9,17 / 18,36019,2018-07-24 13:15:59:607
0.1771,1.7803,10.1982,0.0521,2.9795,9.3429,0.1492,-1.3317,0.5546,0.0436,-0.0918,-0.3589,3807,-23.8,11.24,-24.15,53.17,-17.66,-0.48,3.1,983.26,55.65,42.49811,-83.440475,794.44,912.5245476,,13.64,10.374194,83.8,17 / 18,36519,2018-07-24 13:16:00:107
-0.481,1.8161,10.002,-0.0453,2.968,9.3466,-0.551,-1.2794,0.3475,0.0245,-0.0663,-0.2374,3754,-21.48,7.28,-22.7,57,-17.65,0.01,3.1,983.29,55.244,42.49811,-83.440475,794.44,912.5245476,,13.64,10.374194,83.8,17 / 18,37018,2018-07-24 13:16:00:606
-0.7513,1.5601,10.1121,-0.3756,2.3272,9.5191,-0.367,-0.8213,0.2018,0.0098,-0.0535,-0.1376,3641,-21.01,6.24,-21.93,63.6,-13.73,2.26,3.1,983.3,54.023,42.4981,-83.44044,793.95,912.5245476,,10.26,10.374194,111.9,16 / 18,37518,2018-07-24 13:16:01:106
-0.7657,1.6032,9.9302,-0.5738,1.757,9.6309,-0.1565,-0.1946,0,-0.0111,-0.0403,-0.0478,3600,-21.2,5.83,-23.58,65.17,-11.11,3.03,3.1,983.33,53.885,42.4981,-83.44044,793.95,912.5245476,,10.26,10.374194,111.9,16 / 18,38019,2018-07-24 13:16:01:607
-0.7178,1.7396,9.7771,-0.5978,1.7012,9.6394,-0.0919,0.044,-0.066,-0.0042,0.0314,-0.0441,3589,-20.54,7.38,-22.94,64.38,-10.01,3.24,3.1,983.31,52.693,42.498093,-83.440414,792.24,912.5245476,,6.19,10.374194,112.1,17 / 18,38521,2018-07-24 13:16:02:109
-0.8877,2.077,9.8489,-0.7466,1.8157,9.6081,-0.0811,0.2097,-0.0137,-0.0061,0.0068,-0.0156,3540,-20.12,5.5,-23.96,65.4,-10.4,4.27,3.1,983.32,53.527,42.498093,-83.440414,792.24,912.5245476,,6.19,10.374194,112.1,17 / 18,39018,2018-07-24 13:16:02:606
-0.8973,2.589,9.655,-0.7956,1.9399,9.5799,-0.0696,0.6025,-0.1941,0.0049,-0.0022,-0.0032,3529,-20.23,6.92,-25.23,62.59,-11.27,4.75,3.1,983.32,52.847,42.498093,-83.440414,792.24,912.5245476,,6.19,10.374194,112.1,17 / 18,39518,2018-07-24 13:16:03:106
-0.9739,3.5725,9.3368,-0.783,2.127,9.5411,-0.1389,1.4058,-0.4657,0.0112,-0.0156,-0.004,3544,-19.53,6.44,-22.46,65.25,-11.84,4.76,3.1,983.33,53.079,42.498093,-83.440414,792.24,912.5245476,,6.19,10.374194,112.1,17 / 18,40019,2018-07-24 13:16:03:607
-0.9356,3.5988,9.1884,-0.8402,2.9874,9.3027,-0.0502,0.5543,-0.1952,-0.0117,-0.0138,-0.0226,3548,-19.26,6.05,-23.32,59.89,-17.74,5.16,3.1,983.31,53.486,42.49809,-83.44041,793.57,912.5245476,,1.22,10.374194,116.5,18 / 18,40519,2018-07-24 13:16:04:107
-0.9021,3.283,9.3248,-0.852,3.1921,9.2334,0.029,0.0152,-0.0388,-0.002,-0.0248,-0.0321,3563,-19.58,5.61,-23.1,60.45,-18.98,5.38,3.1,983.32,53.031,42.49809,-83.44041,793.57,912.5245476,,1.22,10.374194,116.5,18 / 18,41018,2018-07-24 13:16:04:606
-0.6054,4.1563,9.2267,-0.7741,3.3285,9.192,0.1773,0.7555,-0.198,0.0102,-0.035,-0.0708,3598,-20.56,5.44,-21.53,63.3,-19.64,4.91,3.1,983.34,55.324,42.49808,-83.4404,793.88,912.5245476,,4.36,10.374194,116.8,18 / 18,41518,2018-07-24 13:16:05:106
-0.4953,3.9051,9.6168,-0.7893,3.4008,9.1642,0.4301,0.6189,0.0853,0.0027,-0.106,-0.15,3612,-19.11,5.15,-21.54,60.83,-20.25,5.2,3.1,983.3,58.117,42.49808,-83.4404,793.88,912.5245476,,4.36,10.374194,116.8,18 / 18,42019,2018-07-24 13:16:05:607
0.682,3.5653,9.5354,-0.5026,3.4397,9.1698,1.241,0.0888,0.7758,0.0361,-0.1386,-0.2942,3635,-17.69,3.38,-20.78,63.11,-20.51,3.54,3.1,983.32,56.239,42.498074,-83.44038,794.09,912.5245476,,8.1,10.374194,124.8,18 / 18,42519,2018-07-24 13:16:06:107
-0.0694,3.2734,8.7793,-0.5794,3.6255,9.0934,1.2827,-0.3683,-0.6177,0.1088,-0.14,-0.4373,3558,-16.16,2.54,-20.66,59.87,-21.18,3.52,3.1,983.35,57.499,42.498074,-83.44038,794.09,912.5245476,,8.1,10.374194,124.8,18 / 18,43019,2018-07-24 13:16:06:607
1.4955,3.8644,8.674,-0.5186,3.8714,8.9952,2.1029,-0.0089,-0.7407,0.0754,-0.1877,-0.5589,3535,-11.38,0.52,-18.58,55.96,-23.25,3.3,3.1,983.32,61.778,42.498047,-83.44035,795.99,912.5245476,,12.92,10.374194,142.8,18 / 18,43518,2018-07-24 13:16:07:106
1.9167,4.1252,9.7029,-0.595,3.922,8.9685,2.1212,-0.033,0.6532,0.0652,-0.2315,-0.585,3413,-8.18,1.13,-17.67,49.95,-23.28,4.1,3.1,983.3,59.447,42.498047,-83.44035,795.99,912.5245476,,12.92,10.374194,142.8,18 / 18,44018,2018-07-24 13:16:07:606
1.2419,4.4674,6.9966,-0.6485,4.1351,8.8685,1.485,0.2542,-0.5935,0.0446,-0.1233,-0.4078,3414,-2.69,3.11,-18.82,22.08,-24.61,3.87,3.1,983.31,59.764,42.498013,-83.44034,795.75,912.5245476,,15.59,10.374194,176.1,18 / 18,44519,2018-07-24 13:16:08:107
-0.6652,4.6756,8.8822,-0.8245,4.1664,8.8392,0.4033,0.4817,-0.3,0.0304,-0.0197,-0.1523,3376,2.8,2.46,-24.43,356.1,-24.84,4.9,3.1,983.26,59.136,42.498013,-83.44034,795.75,912.5245476,,15.59,10.374194,176.1,18 / 18,45018,2018-07-24 13:16:08:606
-1.8521,3.9577,7.5278,-0.8928,4.1125,8.8578,-0.304,0.0592,-0.1432,-0.0313,0.0131,-0.0641,3362,0.31,4.17,-20.47,9.32,-24.93,5.66,3.1,983.29,63.292,42.49796,-83.44037,795.32,912.5245476,,20.74,10.374194,198.4,18 / 18,45518,2018-07-24 13:16:09:106
-1.3208,4.5392,9.1262,-0.9522,4.106,8.8546,-0.3029,0.0022,0.5743,-0.0513,0.0137,0.0072,3331,0.52,4.54,-18.56,4.69,-25.09,6.12,3.1,983.28,62.738,42.49796,-83.44037,795.32,912.5245476,,20.74,10.374194,198.4,18 / 18,46018,2018-07-24 13:16:09:606
-1.0002,3.9936,8.8487,-0.969,4.0421,8.8822,-0.3027,-0.717,-0.6805,0.0607,0.0115,0.0141,3248,0.68,3.52,-19.15,5.31,-24.34,6.23,3.1,983.27,62.128,42.4979,-83.4404,795.38,912.5245476,,25.88,10.374194,202.2,17 / 18,46518,2018-07-24 13:16:10:106
-1.5075,3.6873,8.0806,-1.0016,4.0031,8.8962,-0.2151,-0.2297,-0.1461,-4.00E-04,0.0088,0.0186,3335,0.39,5.26,-18.41,9.58,-24.31,6.42,3.1,983.24,64.218,42.4979,-83.4404,795.38,912.5245476,,25.88,10.374194,202.2,17 / 18,47018,2018-07-24 13:16:10:606
-1.5577,3.6562,8.7314,-0.9815,3.9819,8.9079,-0.4248,-0.588,0.2618,0.0013,0.0037,0.0161,3312,0.22,4.23,-21.51,10.88,-23.96,6.29,3.1,983.23,63.883,42.497833,-83.44044,795.63,912.5245476,,29.59,10.374194,201.2,17 / 18,47518,2018-07-24 13:16:11:106
-1.7157,2.9958,9.9182,-0.9808,3.7562,9.0055,-0.2692,-0.9402,0.1126,-0.0201,0.0381,0.0226,3377,1.76,4.81,-17.13,359.33,-23.12,6.27,3.1,983.13,62.492,42.497833,-83.44044,795.63,912.5245476,,29.59,10.374194,201.2,17 / 18,48018,2018-07-24 13:16:11:606
-1.0074,2.7733,9.7388,-1.0016,3.5769,9.0759,0.0177,-1.2772,0.8405,0.019,0.0192,0.0318,3380,0.49,5.22,-19.21,10.17,-21.51,6.27,3.1,983.16,63.404,42.497757,-83.44048,794.21,912.5245476,,32.15,10.374194,199.4,17 / 18,48519,2018-07-24 13:16:12:107
-1.1797,2.2014,9.6335,-1.0134,3.4229,9.1339,-0.1012,-1.0739,0.5468,-0.0071,0.0233,0.0353,3366,1.36,3.57,-18.54,5.93,-20.65,6.28,3.1,983.16,62.925,42.497757,-83.44048,794.21,912.5245476,,32.15,10.374194,199.4,17 / 18,49018,2018-07-24 13:16:12:606
-1.3328,2.4885,10.4207,-1.073,3.2512,9.1896,-0.3262,-1.1166,-0.0852,0.0119,0.021,0.0544,3361,0.4,4.54,-19.74,11.47,-19.49,6.61,3.1,983.19,61.597,42.49768,-83.44052,792.22,912.5245476,,32.15,10.374194,198.5,17 / 18,49518,2018-07-24 13:16:13:106
-1.3567,2.4526,10.5188,-1.1223,3.0925,9.2384,-0.3735,-0.7994,0.6507,-0.0256,0.0225,0.0583,3342,-0.21,4.29,-19.82,13.14,-18.67,6.8,3.1,983.23,63.516,42.49768,-83.44052,792.22,910.18757,,32.15,10.374194,198.5,17 / 18,50018,2018-07-24 13:16:13:606
-1.328,2.278,9.6598,-1.141,2.964,9.2781,-0.1579,-0.668,0.2261,0.0092,0.0394,0.0607,3395,0.04,5.04,-19.14,12.49,-17.59,7.01,3.1,983.25,61.393,42.49761,-83.440544,793.76,910.18757,,30.56,10.374194,195.3,17 / 18,50518,2018-07-24 13:16:14:106
-1.0863,2.2181,10.203,-1.2086,2.8553,9.3036,-0.1639,-0.6594,0.8121,-0.0197,0.0383,0.0617,3392,0.34,3.38,-20.08,16.18,-17.37,7.32,3.1,983.26,63.17,42.49761,-83.440544,793.76,910.18757,,30.56,10.374194,195.3,17 / 18,51018,2018-07-24 13:16:14:606
-1.0361,2.3091,10.6959,-1.2196,2.7442,9.3355,-0.0667,-0.7435,0.1984,-0.049,0.0249,0.0444,3380,0.47,2.22,-25.9,19.61,-16.65,7.33,3.1,983.3,61.994,42.497536,-83.44056,793.59,910.18757,,28.8,10.374194,191.6,18 / 18,51518,2018-07-24 13:16:15:106
-0.8925,1.9789,10.2939,-1.2413,2.7183,9.3403,0.1307,-0.7564,0.5545,-0.0075,0.0444,0.0208,3380,1.82,1.9,-24.62,7.66,-16.36,7.33,3.1,983.33,63.589,42.497536,-83.44056,793.59,910.18757,,28.8,10.374194,191.6,18 / 18,52018,2018-07-24 13:16:15:606
-1.3448,1.5601,9.9781,-1.159,2.4517,9.4242,-0.0101,-0.9179,0.0557,0.0131,-0.003,0.0322,3359,-0.39,2.54,-25.79,18.94,-14.56,7.12,3.1,983.32,61.251,42.49747,-83.440575,793.09,910.18757,,26.57,10.374194,188.7,18 / 18,52518,2018-07-24 13:16:16:106
-1.1844,1.2395,11.0883,-1.1786,2.2549,9.4708,0.0604,-1.0401,0.6353,0.0161,-0.0044,0.0401,3340,-0.56,3.27,-26.68,24.97,-13.94,7.14,3.1,983.31,65.016,42.49747,-83.440575,793.09,910.18757,,26.57,10.374194,188.7,18 / 18,53018,2018-07-24 13:16:16:606
-0.7657,1.3663,10.3872,-1.1413,2.1741,9.4943,0.2135,-0.9053,0.5182,-0.0372,-0.0052,0.0461,3333,-2.16,1.67,-25.56,33.73,-12.81,6.85,3.1,983.34,61.843,42.497417,-83.440575,793.5,910.18757,,23.26,10.374194,186.8,18 / 18,53518,2018-07-24 13:16:17:106
-0.792,1.3185,9.8393,-1.1064,2.053,9.5253,0.4995,-0.6951,-0.222,0.0139,0.0102,0.0444,3320,-1.81,2.51,-26.1,31.56,-12.04,6.84,3.1,983.38,63.64,42.497417,-83.440575,793.5,910.18757,,23.26,10.374194,186.8,18 / 18,54019,2018-07-24 13:16:17:607
-1.0576,1.2514,10.0618,-1.1709,1.9635,9.5365,0.2482,-0.792,0.1628,0.0023,0.0229,0.0361,3306,-2.38,2.64,-23.88,32.66,-11.55,7,3.1,983.45,57.905,42.497368,-83.440575,793.78,910.18757,,18.29,10.374194,184.2,18 / 18,54518,2018-07-24 13:16:18:106
-1.2969,1.0792,10.1169,-1.2044,1.8842,9.5483,0.0719,-0.7898,0.4184,-0.0114,-0.0268,0.0334,3245,-3.3,3.28,-22.77,38.84,-11.26,7.29,3.1,983.45,56.743,42.497368,-83.440575,793.78,910.18757,,18.29,10.374194,184.2,18 / 18,55019,2018-07-24 13:16:18:607
-0.2225,0.7801,9.4253,-1.1094,1.5886,9.6133,0.2537,-0.8205,-0.2939,-0.0246,0.0265,0.0031,3261,-4.49,2.73,-21.19,44.64,-9.69,6.39,3.1,983.47,55.279,42.497337,-83.44058,791.79,910.18757,,13.57,10.374194,183.6,18 / 18,55518,2018-07-24 13:16:19:106
-0.8734,0.6796,9.6957,-1.0671,1.4772,9.6358,0.2453,-0.7792,-0.1414,0.0064,-0.0105,0.0135,3273,-2.87,4.79,-21.88,33.91,-8.62,6.55,3.1,983.47,56.63,42.497337,-83.44058,791.79,910.18757,,13.57,10.374194,183.6,18 / 18,56022,2018-07-24 13:16:19:610
-0.8901,1.462,10.1216,-1.0236,1.4687,9.6419,0.1375,-0.0312,0.1068,0.0064,-0.004,0.0104,3284,-4.28,2.51,-22.29,45.56,-8.61,6.06,3.1,983.48,52.969,42.497326,-83.44058,791.55,910.18757,,7.09,10.374194,181.4,18 / 18,56518,2018-07-24 13:16:20:106
-0.9141,2.0195,9.8225,-0.9207,1.7171,9.6112,0.0185,0.268,-0.0894,0.0031,-0.002,0.0013,3276,-4.96,2.23,-21.72,39.27,-9.27,5.51,3.1,983.49,52.99,42.497326,-83.44058,791.55,910.18757,,7.09,10.374194,181.4,18 / 18,57019,2018-07-24 13:16:20:607
-0.9667,2.3019,9.6503,-0.925,1.9745,9.5612,-0.0346,0.3231,-0.1049,0.0045,0.0017,-6.00E-04,3279,-3.28,2.06,-26.02,38.32,-11.18,5.49,3.1,983.48,53.282,42.497326,-83.44058,791.55,910.18757,,7.09,10.374194,181.4,18 / 18,57519,2018-07-24 13:16:21:107
-1.0193,2.747,9.5498,-0.9502,2.1865,9.5125,-0.0375,0.4848,-0.1402,-8.00E-04,5.00E-04,-8.00E-04,3279,-2.47,1.12,-27.35,35.21,-12.08,5.61,3.1,983.49,52.626,42.497326,-83.44058,791.55,910.18757,,7.09,10.374194,181.4,18 / 18,58018,2018-07-24 13:16:21:606
-1.0026,2.6417,9.5737,-0.991,2.4983,9.4311,-0.0185,0.1145,-0.0523,3.00E-04,0.0011,0,3279,-5.11,2.46,-22.87,44.25,-14.55,5.95,3.1,983.49,53.649,42.497314,-83.44058,792.79,910.18757,,0,10.374194,,18 / 18,58519,2018-07-24 13:16:22:107
-1.0074,2.7063,9.588,-1.0006,2.5871,9.4062,-0.002,0.0578,-0.0072,9.00E-04,5.00E-04,0,3279,-3.21,2.04,-24.82,33.92,-15.2,6.07,3.1,983.49,52.908,42.497314,-83.44058,792.79,910.18757,,0,10.374194,,18 / 18,59019,2018-07-24 13:16:22:607
-1.017,2.668,9.5426,-1.0041,2.6206,9.3965,0.0044,0.0056,-0.0199,9.00E-04,0.0015,-2.00E-04,3279,-3.31,2.56,-24.35,31.07,-15.5,6.1,3.1,983.49,52.255,42.497314,-83.44058,792.79,910.18757,,0,10.374194,,18 / 18,59518,2018-07-24 13:16:23:106
-1.0289,2.7087,9.5498,-1.0066,2.6371,9.3916,-0.0041,0.0156,-0.0138,5.00E-04,0.0019,0,3279,-4.03,2.75,-24.77,35.09,-15.58,6.11,3.1,983.49,53.625,42.497314,-83.44058,792.79,910.18757,,0,10.374194,,18 / 18,60018,2018-07-24 13:16:23:606
-1.0241,2.6991,9.5234,-1.0068,2.6403,9.3907,-0.0015,-0.0023,-0.002,0,-0.0018,2.00E-04,3279,-6.43,3.9,-20.09,41.87,-15.62,6.12,3.1,983.49,52.181,42.49731,-83.440575,793.55,910.18757,,0,10.374194,,18 / 18,60518,2018-07-24 13:16:24:106
-1.0193,2.6824,9.6311,-1.0079,2.6383,9.3912,-0.0063,0.0092,-0.0135,2.00E-04,-2.00E-04,4.00E-04,3272,-5.71,4.18,-19.57,41.87,-15.61,6.11,3.1,983.49,53.42,42.49731,-83.440575,793.55,910.18757,,0,10.374194,,18 / 18,61018,2018-07-24 13:16:24:606
-1.0457,2.7709,9.612,-1.0079,2.6447,9.3894,2.00E-04,0.0337,-0.0137,0.0011,0.0025,2.00E-04,3272,-6.32,3.57,-18.14,42.85,-15.63,6.12,3.1,983.48,51.422,42.49731,-83.440575,793.55,910.18757,,0,10.374194,,18 / 18,61518,2018-07-24 13:16:25:106
-1.1246,3.2949,9.4445,-1.022,2.7508,9.3573,-0.0756,0.5443,-0.1394,0.0119,0.0029,9.00E-04,3272,-5.9,3.28,-19.6,44.66,-16.12,6.2,3.1,983.49,51.883,42.49731,-83.440575,793.55,910.18757,,0,10.374194,,18 / 18,62019,2018-07-24 13:16:25:607
-1.1198,3.1585,9.4708,-1.065,3.0363,9.2637,-0.0244,0.0711,-0.0383,0.0011,0.0051,0.0021,3272,-4.64,3.85,-20.49,36.61,-17.89,6.5,3.1,983.48,52.543,42.49731,-83.440575,793.55,910.18757,,0,10.374194,,17 / 18,62518,2018-07-24 13:16:26:106
-1.1438,3.6634,9.2004,-1.0632,3.1097,9.2396,-0.0524,0.4714,-0.1807,0.0045,-0.0081,0.0055,3249,-5.16,4.37,-17.99,37.36,-18.22,6.59,3.1,983.47,52.128,42.49731,-83.440575,793.55,910.18757,,0,10.374194,,17 / 18,63019,2018-07-24 13:16:26:607
-1.3041,3.3499,9.6837,-1.1204,3.3259,9.1571,-0.1379,-0.0355,0.46,0.0096,-0.0209,0.021,3234,-3.74,4.53,-16.33,30.79,-19.6,6.88,3.1,983.48,52.291,42.497303,-83.440575,793.23,910.18757,,2.2,10.374194,181.3,16 / 18,63519,2018-07-24 13:16:27:107
-1.1222,2.7972,9.6981,-1.063,3.1287,9.2332,0.0241,-0.3619,0.2671,0.0173,-0.0083,0.0027,3192,-6.11,3.35,-18.94,43.07,-18.82,6.58,3.1,983.48,53.827,42.497303,-83.440575,793.23,910.18757,,2.2,10.374194,181.3,16 / 18,64018,2018-07-24 13:16:27:606
-1.1318,3.2016,9.5569,-1.0395,3.062,9.2582,-0.0426,0.1507,0.0971,-4.00E-04,0,9.00E-04,3188,-6.8,2.76,-18.91,46.87,-18.19,6.41,3.1,983.47,53.041,42.4973,-83.440575,792.91,910.18757,,3.67,10.374194,181.3,17 / 18,64519,2018-07-24 13:16:28:107
-1.1246,3.4744,9.4325,-1.0622,3.1952,9.2105,-0.0304,0.1837,0.0015,-0.0087,-0.0071,0.0031,3147,-5.69,2.84,-17.05,44.41,-18.79,6.54,3.1,983.48,52.462,42.4973,-83.440575,792.91,910.18757,,3.67,10.374194,181.3,17 / 18,65018,2018-07-24 13:16:28:606
-1.0935,3.0221,9.2626,-1.0553,3.1418,9.2296,-0.0152,-0.1475,-0.0361,0.0041,-0.0012,-0.0026,3120,-3.42,4.15,-16.55,28.23,-18.86,6.5,3.1,983.5,54.358,42.497288,-83.440575,793.18,910.18757,,4,10.374194,181.3,17 / 18,65518,2018-07-24 13:16:29:106
-1.0887,3.3141,9.3009,-1.0392,3.1492,9.2289,-3.00E-04,0.1308,-0.0515,-2.00E-04,-0.0032,2.00E-04,3124,-5.75,2.87,-15.21,41.14,-18.48,6.34,3.1,983.49,52.795,42.497288,-83.440575,793.18,910.18757,,4,10.374194,181.3,17 / 18,66019,2018-07-24 13:16:29:607
-1.1557,3.7878,9.0712,-1.0485,3.3699,9.1496,-0.0205,0.4095,-0.1873,-0.0044,0.0108,-0.003,3158,-3.72,4,-18.15,31.72,-20.1,6.54,3.1,983.49,54.613,42.497276,-83.440575,793.37,910.18757,,5.72,10.374194,181.2,17 / 18,66518,2018-07-24 13:16:30:106
-1.2156,3.874,8.8032,-1.0939,3.5494,9.0761,-0.0891,0.1931,-0.3369,-0.0254,7.00E-04,4.00E-04,3196,-6.18,3.43,-18.14,41.9,-21.27,6.82,3.1,983.49,55.094,42.497276,-83.440575,793.37,910.18757,,5.72,10.374194,181.2,17 / 18,67019,2018-07-24 13:16:30:607
-1.0074,3.149,9.3416,-1.0714,3.5162,9.0917,0.1982,-0.5313,0.2549,-8.00E-04,-0.0093,0.0029,3173,-5.34,4.5,-17.6,35.53,-21.12,6.84,3.1,983.5,54.824,42.497257,-83.440575,792.11,910.18757,,8.46,10.374194,179.6,17 / 18,67519,2018-07-24 13:16:31:107
-1.0385,2.6345,9.5306,-1.1186,3.404,9.1286,0.1211,-0.7681,0.2677,-0.0028,0.0062,0.0092,3101,-5.88,3.36,-20.14,36.22,-20.47,7.02,3.1,983.48,55.292,42.497257,-83.440575,792.11,910.18757,,8.46,10.374194,179.6,17 / 18,68019,2018-07-24 13:16:31:607
-1.3448,2.7996,9.4636,-1.1281,3.2737,9.175,-0.1711,-0.5824,0.0972,-0.0057,0.0237,0.006,3155,-4.44,4.48,-17.02,32.91,-19.68,6.89,3.1,983.47,57.321,42.497223,-83.440575,791.75,910.18757,,11.3,10.374194,180.4,17 / 18,68518,2018-07-24 13:16:32:106
-0.9093,2.7446,9.3775,-1.0872,3.2384,9.1924,0.1738,-0.504,-7.00E-04,0.0186,0.0176,0.0084,3166,-4.85,3.09,-17.15,40.29,-19.28,6.75,3.1,983.49,56.684,42.497223,-83.440575,791.75,910.18757,,11.3,10.374194,180.4,17 / 18,69019,2018-07-24 13:16:32:607
-1.1079,2.802,9.0951,-1.0454,3.1257,9.2362,0.07,-0.2583,-0.1186,0.0114,-0.0028,0.0141,3119,-4.82,3.83,-18.66,36.54,-18.79,6.67,3.1,983.49,55.362,42.497196,-83.44057,791.47,910.18757,,12.24,10.374194,180.3,18 / 18,69518,2018-07-24 13:16:33:106
-1.072,4.4076,9.2841,-1.0549,3.295,9.1761,-0.1505,0.8965,-0.1575,-0.0016,-0.0036,0.0106,3052,-5.39,3.46,-18.38,39.56,-19.09,6.54,3.1,983.49,58.07,42.497196,-83.44057,791.47,910.18757,,12.24,10.374194,180.3,18 / 18,70019,2018-07-24 13:16:33:607
-1.1486,4.5894,9.2554,-1.0842,3.4123,9.1297,-0.1336,0.918,0.0485,-0.0042,0.0157,0.0053,3155,-4.42,2.08,-19.38,36.85,-20.21,6.65,3.1,983.47,61.514,42.49716,-83.440575,790.06,910.18757,,13.93,10.374194,179.3,18 / 18,70518,2018-07-24 13:16:34:106
-0.682,3.7639,8.9946,-1.0409,3.4472,9.1216,0.2705,0.1307,-0.2214,-0.0374,0.0151,-0.0079,3299,-6.08,2.62,-16.97,42.84,-20.58,6.51,3.1,983.45,57.633,42.49716,-83.440575,790.06,905.9799889,,13.93,10.374194,179.3,18 / 18,71018,2018-07-24 13:16:34:606
-0.8423,2.9743,9.1765,-0.9828,3.2871,9.1869,0.2168,-0.4677,0.0081,-0.0028,0.0037,-0.0372,3328,-6.48,4.07,-19.87,38.34,-19.67,6.13,3.1,983.44,60.326,42.49711,-83.440575,789.53,905.9799889,,19.01,10.374194,179.3,18 / 18,71521,2018-07-24 13:16:35:109
0.2106,2.991,8.7745,-0.808,3.2858,9.2044,1.206,-0.3411,-0.0097,-0.0223,-0.0714,-0.1136,3328,-7.02,2.33,-17.9,48.03,-19.58,5.02,3.1,983.47,62.185,42.49711,-83.440575,789.53,905.9799889,,19.01,10.374194,179.3,18 / 18,72019,2018-07-24 13:16:35:607
1.395,2.9934,8.9611,-0.4872,3.3496,9.204,1.8717,-0.5379,0.13,0.0699,-0.0244,-0.2107,3346,-4.92,4.56,-16.4,30.11,-19.97,3.03,3.1,983.48,57.283,42.49705,-83.440575,790.2,905.9799889,,22.1,10.374194,181.4,18 / 18,72518,2018-07-24 13:16:36:106
1.0409,3.2662,9.521,-0.3308,3.6111,9.1116,1.6027,-0.09,0.8488,-0.013,-0.0199,-0.2989,3391,-4.38,2.8,-16.16,27.45,-22.05,1.93,3.1,983.46,62.073,42.49705,-83.440575,790.2,905.9799889,,22.1,10.374194,181.4,18 / 18,73019,2018-07-24 13:16:36:607
1.34,3.7783,9.3248,-0.2687,3.796,9.0382,1.762,-0.2554,0.0213,0.0654,-0.1111,-0.3306,3384,-1.91,3.53,-17.86,13.56,-22.26,1.7,3.1,983.47,62.244,42.496998,-83.44059,789.86,905.9799889,,22.68,10.374194,193.4,18 / 18,73518,2018-07-24 13:16:37:106
1.5194,3.5557,8.8606,-0.0703,3.7752,9.0506,1.6512,-0.3704,-1.0056,-0.0244,-0.2642,-0.2946,3428,1.17,6.28,-18.51,356.21,-22.64,0.45,3.1,983.47,59.197,42.496998,-83.44059,789.86,905.9799889,,22.68,10.374194,193.4,18 / 18,74018,2018-07-24 13:16:37:606
3.4816,3.1609,9.3033,0.5043,3.6504,9.0879,3.0942,-0.5263,0.0594,0.0505,-0.1443,-0.4288,3458,2.89,8.11,-19.49,344.91,-21.44,-2.62,3.1,983.46,59.7,42.49694,-83.44064,788.74,905.9799889,,23.58,10.374194,212.2,18 / 18,74518,2018-07-24 13:16:38:106
3.0724,3.6562,9.2818,0.6303,3.7911,9.0222,2.4993,-0.2059,0.2219,0.0214,-0.1578,-0.4599,3594,3.49,13.2,-19.85,349.87,-22.28,-3.34,3.1,983.42,71.05,42.49694,-83.44064,788.74,905.9799889,,23.58,10.374194,212.2,18 / 18,75018,2018-07-24 13:16:38:606
2.4646,4.4841,9.3272,0.6425,3.9963,8.9324,1.4133,0.3352,0.0803,0.0204,-0.0814,-0.3628,3700,3.53,16.3,-21.86,346.36,-23.71,-4.38,3.1,983.38,60.368,42.496902,-83.44071,787.04,905.9799889,,24.48,10.374194,236,18 / 18,75518,2018-07-24 13:16:39:106
0.8519,4.4865,9.1645,0.5186,4.2069,8.8433,0.3286,0.1216,0.035,0.0118,-0.0545,-0.1969,3751,3.18,17.81,-23.02,350.8,-25.07,-3.01,3.1,983.42,59.625,42.496902,-83.44071,787.04,905.9799889,,24.48,10.374194,236,18 / 18,76018,2018-07-24 13:16:39:606
0.0933,4.7856,9.0042,0.3673,4.3832,8.7649,-0.206,0.2838,-0.1128,0.0163,-0.0022,-0.1064,3751,4.21,17.97,-22.42,348.94,-26.25,-2.72,3.1,983.37,63.068,42.49689,-83.44081,786.12,905.9799889,,26.64,10.374194,253.1,18 / 18,76518,2018-07-24 13:16:40:106
-0.8351,4.6277,8.9659,0.1452,4.3997,8.7631,-0.8797,-0.0122,-0.18,-4.00E-04,-0.0423,-0.0334,3745,5.06,17.97,-22.57,348.47,-26.66,-0.95,3.1,983.31,65.396,42.49689,-83.44081,786.12,905.9799889,,26.64,10.374194,253.1,18 / 18,77018,2018-07-24 13:16:40:606
-0.2919,4.8024,9.3751,-0.0855,4.5142,8.7055,-0.2433,-0.0159,0.1698,0.0025,7.00E-04,-0.0374,3740,1.77,19.18,-21.97,356,-27.36,0.29,3.1,983.26,62.012,42.496887,-83.440926,785.44,905.9799889,,34.09,10.374194,265,18 / 18,77518,2018-07-24 13:16:41:106
-0.4953,4.0893,9.1645,-0.1237,4.4609,8.7325,-0.3716,-0.712,0.227,-0.0338,-0.0087,-0.0079,3722,3.83,19.8,-21.62,351.98,-27.29,0.84,3.1,983.22,62.672,42.496887,-83.440926,785.44,905.9799889,,34.09,10.374194,265,18 / 18,78019,2018-07-24 13:16:41:607
-0.3924,3.7926,8.5089,-0.1813,4.3426,8.7909,-0.1841,-0.5187,-0.1173,-0.0276,-0.0042,-0.0063,3718,3.68,20.2,-23.33,352.73,-26.67,1,3.1,983.15,63.413,42.49688,-83.44106,784.8,905.9799889,,39.82,10.374194,266.8,18 / 18,78518,2018-07-24 13:16:42:106
-0.5623,3.9027,9.2315,-0.3159,4.2249,8.8442,-0.4316,-0.4577,0.0579,-0.0203,0.0139,-4.00E-04,3744,3.8,18.88,-21.57,352.79,-25.74,1.84,3.1,983.15,65.641,42.49688,-83.44106,784.8,905.9799889,,39.82,10.374194,266.8,18 / 18,79019,2018-07-24 13:16:42:607
-0.5408,3.7256,9.5354,-0.3566,4.136,8.8846,-0.3334,-0.6594,0.6044,-0.0201,-0.004,0.0131,3748,3.8,20.67,-23.1,353.9,-25.24,2.27,3.1,983.12,63.373,42.49688,-83.441216,781.16,905.9799889,,43.38,10.374194,267.2,18 / 18,79518,2018-07-24 13:16:43:106
-0.8829,3.2447,8.9013,-0.3898,4.0599,8.9183,-0.331,-0.8618,-0.0841,-0.0071,0.0043,0.0127,3741,3.58,19.19,-22.07,353.46,-24.53,2.5,3.1,983.11,63.833,42.49688,-83.441216,781.16,905.9799889,,43.38,10.374194,267.2,18 / 18,80018,2018-07-24 13:16:43:606
-1.017,3.1107,9.4134,-0.4123,3.8982,8.9891,-0.3529,-0.8569,0.1579,-0.0189,0.0029,0.0131,3733,3.3,18.31,-22.75,355.65,-23.72,2.58,3.1,983.16,61.915,42.496872,-83.44137,779.79,905.9799889,,46.08,10.374194,266.6,18 / 18,80518,2018-07-24 13:16:44:106
-0.8806,2.333,8.6237,-0.4934,3.7887,9.0318,-0.3294,-1.1418,-0.2856,-0.0655,-0.0148,0.0237,3722,3.73,18.6,-21.93,353.89,-22.73,3.13,3.1,983.15,62.178,42.496872,-83.44137,779.79,905.9799889,,46.08,10.374194,266.6,18 / 18,81019,2018-07-24 13:16:44:607
-0.6413,2.5675,8.5998,-0.5563,3.6011,9.1046,-0.2751,-1.0314,0.0265,-0.0252,0.0298,0.0255,3695,6.58,21.15,-20.69,348.04,-21.89,3.2,3.1,983.15,63.463,42.496864,-83.44153,779.68,905.9799889,,47.09,10.374194,265.9,18 / 18,81519,2018-07-24 13:16:45:107
-1.6702,2.4933,9.6239,-0.6501,3.4844,9.1437,-0.7487,-1.0088,0.3314,0.018,0.0237,0.0414,3691,5.24,19.98,-20.02,352.16,-20.81,4.07,3.1,983.25,64.419,42.496864,-83.44153,779.68,905.9799889,,47.09,10.374194,265.9,18 / 18,82018,2018-07-24 13:16:45:606
-1.2251,2.5149,9.8106,-0.7405,3.3174,9.1987,-0.3635,-0.8218,0.4592,0.0155,0.0137,0.034,3714,5.46,18.75,-20.87,352.4,-19.98,4.45,3.1,983.2,64.267,42.49685,-83.44168,779.47,905.9799889,,46.37,10.374194,264.1,18 / 18,82518,2018-07-24 13:16:46:106
-0.3709,2.6608,9.813,-0.6849,3.2134,9.2399,0.268,-0.6803,0.3247,0.0237,-0.0097,0.0011,3714,5.7,20.05,-19.45,349.78,-19.13,4.32,3.1,983.21,61.667,42.49685,-83.44168,779.47,905.9799889,,46.37,10.374194,264.1,18 / 18,83018,2018-07-24 13:16:46:606
-0.3422,2.4957,9.856,-0.5113,3.0245,9.3146,0.379,-0.5825,0.3394,0.0172,-0.0335,-0.0142,3721,2.56,17.81,-23.44,356.15,-18.01,3.39,3.1,983.28,61.101,42.496838,-83.44184,778.71,905.9799889,,45.18,10.374194,261.7,18 / 18,83518,2018-07-24 13:16:47:106
0.2249,2.199,9.4421,-0.4067,2.92,9.353,0.3855,-0.6066,0.3864,-0.0018,-0.012,-0.022,3699,2.4,18.33,-23.3,357.62,-17.32,2.49,3.1,983.34,59.866,42.496838,-83.44184,778.71,905.9799889,,45.18,10.374194,261.7,18 / 18,84018,2018-07-24 13:16:47:606
0.4187,2.5675,9.8201,-0.3351,2.8552,9.3758,0.4517,-0.3169,0.3437,-0.0093,-0.0089,-0.0281,3729,3.01,17.59,-23.78,354.99,-17.12,2.08,3.1,983.37,61.378,42.496822,-83.441986,777.01,905.9799889,,43.42,10.374194,262.1,18 / 18,84518,2018-07-24 13:16:48:106
0.1484,2.8235,9.7771,-0.251,2.8428,9.3822,0.486,-0.2479,0.1337,-0.0223,-0.036,-0.0366,3725,3.55,19.1,-24.32,352.4,-16.85,1.53,3.1,983.39,62.154,42.496822,-83.441986,777.01,905.9799889,,43.42,10.374194,262.1,18 / 18,85018,2018-07-24 13:16:48:606
0.0742,2.6345,9.2459,-0.2124,2.8077,9.3937,0.1055,-0.2826,-0.3572,-0.0252,-0.0105,-0.0431,3718,2.31,18.42,-24.12,356.52,-16.87,1.26,3.1,983.39,61.231,42.49681,-83.44212,776.19,905.9799889,,41.33,10.374194,264,18 / 18,85520,2018-07-24 13:16:49:108
-0.1795,2.6082,9.8728,-0.2414,2.8157,9.3906,0.0197,-0.2924,0.1591,0.0072,0.0265,-0.0317,3718,4.58,18.55,-21,349.37,-16.63,1.22,3.1,983.38,61.36,42.49681,-83.44212,776.19,905.9799889,,41.33,10.374194,264,18 / 18,86018,2018-07-24 13:16:49:606
-0.5001,2.12,9.6455,-0.2736,2.6991,9.4239,-0.2157,-0.6259,0.3835,-0.0193,0.0092,-0.0087,3710,4.51,20.63,-22.52,350.65,-16.25,1.53,3.1,983.33,61.969,42.496803,-83.44225,775.22,905.9799889,,39.92,10.374194,266.5,18 / 18,86518,2018-07-24 13:16:50:106
-0.2823,1.4022,9.8513,-0.2055,2.6069,9.4516,-0.0689,-1.0713,0.1268,0.0021,-0.0177,0.0137,3710,2.6,21.16,-23.3,354.59,-15.42,1.25,3.1,983.28,61.22,42.496803,-83.44225,775.22,905.9799889,,39.92,10.374194,266.5,18 / 18,87018,2018-07-24 13:16:50:606
-0.3709,1.5649,9.8058,-0.2207,2.3281,9.5237,-0.0927,-0.8927,0.3694,0.0064,-0.0215,0.0076,3676,3.31,19.51,-25.07,354.76,-14.67,1.47,3.1,983.27,62.666,42.4968,-83.442375,773.93,905.9799889,,37.48,10.374194,267.2,18 / 18,87519,2018-07-24 13:16:51:107
-0.28,1.273,9.8345,-0.2939,2.2254,9.5463,-0.0294,-1.0872,0.2861,-0.0063,-0.0118,0.0106,3676,1.37,18.59,-23.42,356.62,-13.48,1.38,3.1,983.41,62.668,42.4968,-83.442375,773.93,905.9799889,,37.48,10.374194,267.2,18 / 18,88018,2018-07-24 13:16:51:606
-0.0407,1.3495,10.3729,-0.2407,2.0367,9.5898,0.082,-1.0377,0.2382,5.00E-04,0.0206,0.0051,3725,3.67,20.28,-23.56,352.14,-12.11,1.43,3.1,983.46,59.661,42.496796,-83.44249,773.8,905.9799889,,32.44,10.374194,266.8,18 / 18,88518,2018-07-24 13:16:52:106
-0.6676,1.675,9.4062,-0.2717,1.9661,9.6037,-0.1395,-0.1904,-0.1219,0.0218,1.00E-04,0.0027,3781,4.49,19.1,-24.76,352.05,-11.49,1.6,3.1,983.52,60.073,42.496796,-83.44249,773.8,905.9799889,,32.44,10.374194,266.8,18 / 18,89019,2018-07-24 13:16:52:607
-0.3781,1.742,10.6457,-0.3323,1.8807,9.6189,-0.027,-0.1316,0.3102,-4.00E-04,0.0263,-0.0016,3885,2.95,18.85,-24.3,354.45,-11.1,1.76,3.1,983.56,59.686,42.49679,-83.442566,773.08,905.9799889,,25.81,10.374194,266.3,18 / 18,89518,2018-07-24 13:16:53:106
-0.3493,2.0578,9.8848,-0.347,1.8955,9.6155,-0.0795,0.1616,0.0829,-0.0128,0.0066,0.0119,3900,3.65,19.15,-23.57,352.35,-11.14,2.07,3.1,983.61,58.244,42.49679,-83.442566,773.08,905.9799889,,25.81,10.374194,266.3,18 / 18,90019,2018-07-24 13:16:53:607
-0.3278,1.5984,9.8943,-0.3516,1.8805,9.6182,-0.0939,-0.3269,0.0039,0.0088,0.0316,0.0133,3907,3.43,18.6,-22.67,354.5,-11.2,1.93,3.1,983.6,58.316,42.496784,-83.44264,772.89,905.9799889,,21.13,10.374194,265.8,18 / 18,90518,2018-07-24 13:16:54:106
-0.2632,1.4022,9.2267,-0.3871,1.7401,9.6433,0.0102,-0.0977,-0.2341,0.0049,0.0448,0.0177,3900,3.22,18.6,-22.67,354.8,-10.22,2.3,3.1,983.63,58.811,42.496784,-83.44264,772.89,905.9799889,,21.13,10.374194,265.8,18 / 18,91018,2018-07-24 13:16:54:606
-0.5312,2.5747,9.5474,-0.5025,1.9369,9.6003,0.0713,0.67,-0.2482,0.0102,0.0668,0.0074,3885,3.85,18.78,-24.68,353.13,-10.75,2.7,3.1,983.64,61.705,42.496777,-83.44269,775.37,905.9799889,,16.81,10.374194,264.6,18 / 18,91518,2018-07-24 13:16:55:106
-0.3781,2.8714,10.2915,-0.7005,2.1527,9.5418,0.1773,0.5863,0.095,-0.0089,0.0695,0.0182,3871,4.15,17.51,-24.04,354.13,-12.56,3.92,3.1,983.65,59.013,42.496777,-83.44269,775.37,905.9799889,,16.81,10.374194,264.6,18 / 18,92019,2018-07-24 13:16:55:607
-1.3687,2.8714,9.3751,-0.9414,2.1562,9.5202,-0.2419,0.5822,-0.3787,-0.0209,0.0347,0.0626,3829,5.19,18.33,-21.6,352.83,-12.64,5.61,3.1,983.66,57.014,42.496777,-83.44274,776.65,905.9799889,,14.9,10.374194,264.3,18 / 18,92519,2018-07-24 13:16:56:107
-2.4933,2.6106,10.0044,-1.3063,2.2894,9.4458,-1.0137,0.2641,0.3294,0.0013,0.0509,0.1699,3773,6.67,18.01,-20.1,349.37,-13.5,7.87,3.1,983.67,56.496,42.496777,-83.44274,776.65,905.9799889,,14.9,10.374194,264.3,18 / 18,93019,2018-07-24 13:16:56:607
-2.2827,2.6369,10.3777,-1.5421,2.49,9.3591,-0.8086,0.066,0.5083,-0.0071,0.0827,0.199,3736,8.25,17.06,-19.93,347.65,-14.6,9.03,3.1,983.67,57.088,42.49677,-83.44279,776.08,905.9799889,,13.46,10.374194,258.2,18 / 18,93518,2018-07-24 13:16:57:106
-1.4644,1.6774,9.7723,-1.5506,2.486,9.3587,0.078,-0.8144,0.3359,-0.0175,0.0697,0.1837,3723,5.62,13.79,-20.07,351.97,-14.69,9.41,3.1,983.66,57.432,42.49677,-83.44279,776.08,905.9799889,,13.46,10.374194,258.2,18 / 18,94018,2018-07-24 13:16:57:606
-1.1557,1.2538,10.282,-1.4981,2.22,9.4339,0.2267,-0.9112,0.2924,-0.0183,0.0487,0.178,3682,4.68,12.48,-18.76,354.07,-13.77,9.25,3.1,983.67,55.875,42.496765,-83.44281,774.28,905.9799889,,12.06,10.374194,247.7,18 / 18,94519,2018-07-24 13:16:58:107
-0.8877,1.1342,10.002,-1.2667,1.8379,9.5492,0.4855,-0.7235,0.2724,-0.015,0.0396,0.1336,3638,5.41,12.67,-17.66,353.45,-12.65,8.73,3.1,983.68,54.859,42.496765,-83.44281,774.28,905.9799889,,12.06,10.374194,247.7,18 / 18,95018,2018-07-24 13:16:58:606
-0.7561,1.9789,9.8848,-1.0154,1.6172,9.6189,0.3168,0.3902,-0.0961,0.0015,0.019,0.0511,3593,3.64,13.68,-18.3,352.9,-9.39,6.02,3.1,983.67,54.346,42.496758,-83.44283,774.74,905.9799889,,6.77,10.374194,234.9,18 / 18,95518,2018-07-24 13:16:59:106
-0.7777,2.3689,9.6359,-0.8824,1.9881,9.5624,0.1079,0.3724,-0.1382,7.00E-04,0.0055,0.0114,3581,3.08,11.16,-17.8,354.84,-11.16,5.4,3.1,983.69,57.371,42.496758,-83.44283,774.74,905.9799889,,6.77,10.374194,234.9,18 / 18,96018,2018-07-24 13:16:59:606
-1.0193,3.0796,9.2961,-0.9054,2.2771,9.4955,-0.0903,0.7324,-0.3454,0.008,0.0039,-4.00E-04,3589,4.16,11.46,-18.77,351.59,-12.73,5.34,3.1,983.68,56.973,42.496758,-83.44284,774.25,905.9799889,,4.21,10.374194,235.6,18 / 18,96518,2018-07-24 13:17:00:106
-1.0098,3.1442,9.4516,-0.9609,2.7543,9.3627,-0.0342,0.3237,-0.0765,9.00E-04,-0.0016,-4.00E-04,3585,7,8.83,-24.4,343.81,-16.31,5.86,3.1,983.68,55.376,42.496758,-83.44284,774.25,905.9799889,,4.21,10.374194,235.6,18 / 18,97019,2018-07-24 13:17:00:607
-1.0385,3.149,9.411,-0.9836,2.9675,9.295,-0.0251,0.0952,-0.0508,7.00E-04,7.00E-04,-2.00E-04,3585,7.87,8.93,-24.29,341.1,-17.25,5.99,3.1,983.68,55.299,42.49676,-83.44284,773.1,905.9799889,,0,10.374194,,18 / 18,97518,2018-07-24 13:17:01:106
-1.0337,3.1442,9.4038,-0.9911,3.025,9.2757,-0.0093,0.0439,-0.025,0.0011,0.0017,-6.00E-04,3574,6.1,9.65,-21.81,347.57,-17.97,6.1,3.1,983.7,54.196,42.49676,-83.44284,773.1,905.9799889,,0,10.374194,,18 / 18,98018,2018-07-24 13:17:01:606
-1.0337,3.1537,9.4253,-0.9927,3.0477,9.268,-0.0118,0.0377,-0.0166,1.00E-04,0.0017,0,3574,5.41,8.63,-24.11,348.06,-18.05,6.1,3.1,983.68,54.526,42.49676,-83.44284,773.1,905.9799889,,0,10.374194,,18 / 18,98518,2018-07-24 13:17:02:106
-1.0361,3.149,9.4373,-0.9949,3.0562,9.265,-0.0112,0.0015,-0.0131,0,0.0013,0,3566,6.06,9.11,-22.98,347.51,-18.14,6.11,3.1,983.69,55.238,42.49676,-83.44284,773.1,905.9799889,,0,10.374194,,18 / 18,99018,2018-07-24 13:17:02:606
-1.0217,3.1226,9.3559,-0.9928,3.0581,9.2646,-0.0061,0.0175,-0.0123,-4.00E-04,-0.0022,2.00E-04,3569,5.31,9.73,-25.03,352.45,-18.15,6.12,3.1,983.69,54.862,42.49677,-83.44284,771.87,905.9799889,,0,10.374194,,18 / 18,99518,2018-07-24 13:17:03:106
-0.9834,3.0724,9.4182,-0.9946,3.0553,9.2653,0.0083,-0.022,-0.0084,0,0.0025,-2.00E-04,3570,4.32,10.75,-18.89,353.25,-18.15,6.13,3.1,983.69,53.724,42.49677,-83.44284,771.87,905.9799889,,0,10.374194,,18 / 18,100018,2018-07-24 13:17:03:606
-0.9882,3.1035,9.4158,-0.9937,3.0583,9.2645,0.0057,0.0041,-0.0167,-6.00E-04,-0.001,-2.00E-04,3559,3.21,10.79,-19.54,357.09,-18.17,6.12,3.1,983.69,53.578,42.49677,-83.44284,771.87,905.9799889,,0,10.374194,,18 / 18,100518,2018-07-24 13:17:04:106
-1.0098,3.0724,9.4229,-0.9928,3.058,9.2646,-7.00E-04,-0.0285,-0.0143,1.00E-04,-0.0011,0,3562,3.66,11.14,-19.53,353.72,-18.17,6.12,3.1,983.68,53.193,42.49677,-83.44284,771.87,905.9799889,,0,10.374194,,18 / 18,101018,2018-07-24 13:17:04:606
-1.0122,3.1298,9.4899,-0.9928,3.0601,9.2639,0.0027,0.0235,0.0277,3.00E-04,-0.0021,0,3563,3.02,10.27,-20.19,356.93,-18.16,6.13,3.1,983.68,53.73,42.49677,-83.44284,771.87,905.9799889,,0,10.374194,,18 / 18,101518,2018-07-24 13:17:05:106
-0.9978,3.125,9.466,-0.9935,3.0573,9.2648,0.0066,-9.00E-04,0.0294,-0.0011,-2.00E-04,0,3563,4.19,12.19,-18.74,349.33,-18.19,6.12,3.1,983.69,53.701,42.49677,-83.44284,771.87,905.9799889,,0,10.374194,,18 / 18,102019,2018-07-24 13:17:05:607
-1.0768,3.3021,9.3631,-1.0015,3.0822,9.2557,-0.0418,0.0952,-0.0683,9.00E-04,0.0012,0,3555,4.21,11.04,-18.79,353.24,-18.19,6.11,3.1,983.68,54.35,42.49677,-83.44284,771.87,905.9799889,,0,10.374194,,18 / 18,102519,2018-07-24 13:17:06:107
-1.0026,3.3811,9.3846,-1.0386,3.2535,9.1927,0.0361,-0.0605,0.0452,-0.0025,0.0012,0.0126,3555,3.89,11.01,-18.72,353.74,-19.38,6.45,3.1,983.7,54.515,42.49677,-83.44284,771.87,905.9799889,,0,10.374194,,18 / 18,103018,2018-07-24 13:17:06:606
-1.0887,3.1777,9.2722,-0.976,3.0445,9.2709,-0.0626,0.1785,-0.0225,9.00E-04,0.003,-4.00E-04,3547,2.94,9.93,-19.78,356.96,-18.53,6.14,3.1,983.69,54.514,42.49677,-83.44284,771.87,905.9799889,,0,10.374194,,18 / 18,103519,2018-07-24 13:17:07:107
-1.0241,3.1322,9.3846,-0.9839,3.0554,9.2664,-0.0227,0.0343,0.0049,-7.00E-04,-0.0049,0,3543,3.5,9.73,-19.32,353.11,-18.11,6.01,3.1,983.68,53.922,42.49677,-83.44284,771.87,905.9799889,,0,10.374194,,18 / 18,104018,2018-07-24 13:17:07:606
-1.0217,3.1514,9.3918,-0.9854,3.0643,9.2633,0.0027,-0.013,-0.0111,-0.0017,0.0055,-2.00E-04,3547,3.58,11.22,-18.1,352.72,-18.22,6.09,3.1,983.69,55.049,42.49677,-83.44284,771.87,905.9799889,,0,10.374194,,18 / 18,104518,2018-07-24 13:17:08:106
-1.0313,3.1226,9.3799,-0.9916,3.0702,9.2607,-0.011,-0.005,-0.0101,5.00E-04,-0.0019,0,3555,3.56,11.43,-18.74,353.24,-18.23,6.11,3.1,983.69,54.442,42.49677,-83.44284,771.87,905.9799889,,0,10.374194,,18 / 18,105019,2018-07-24 13:17:08:607
-1.0146,3.1394,9.4397,-0.9933,3.0707,9.2604,0.0039,3.00E-04,0.0099,-1.00E-04,4.00E-04,-2.00E-04,3555,3.89,10.8,-19.48,353.26,-18.24,6.12,3.1,983.69,54.926,42.496773,-83.44285,775.48,905.9799889,,0,10.374194,,18 / 18,105519,2018-07-24 13:17:09:107
-0.9954,3.1322,9.4229,-0.9915,3.071,9.2605,0.0011,0.0093,0.002,1.00E-04,-0.0015,2.00E-04,3552,4.76,11.08,-18.59,349.88,-18.25,6.11,3.1,983.7,56.8,42.496773,-83.44285,775.48,905.9799889,,0,10.374194,,18 / 18,106019,2018-07-24 13:17:09:607
-1.0337,3.1131,9.3942,-0.9932,3.0696,9.2608,0.0011,0.0018,-0.0037,-0.0013,-4.00E-04,-2.00E-04,3552,3.55,10.99,-19.03,353.26,-18.24,6.13,3.1,983.69,60.211,42.496773,-83.44285,775.48,905.9799889,,0,10.374194,,18 / 18,106519,2018-07-24 13:17:10:107
-1.0122,3.149,9.4014,-0.9926,3.073,9.2597,-0.0034,0.025,-0.0102,-5.00E-04,-4.00E-04,-2.00E-04,3559,4.43,10.92,-18.73,353.25,-18.24,6.12,3.1,983.71,61.357,42.496773,-83.44285,775.48,905.9799889,,0,10.374194,,18 / 18,107018,2018-07-24 13:17:10:606
-1.017,3.1418,9.4182,-0.9914,3.0733,9.2597,0.0036,0.0033,-0.0019,3.00E-04,-6.00E-04,0,3566,5.38,11.67,-20.12,350.93,-18.24,6.12,3.1,983.67,68.409,42.496773,-83.44285,775.48,905.9799889,,0,10.374194,,18 / 18,107518,2018-07-24 13:17:11:106
-1.005,3.1346,9.4708,-0.9932,3.0707,9.2604,5.00E-04,0.0159,0.0216,-9.00E-04,-0.0017,0,3566,3.56,11.04,-19.6,353.73,-18.25,6.12,3.1,983.67,68.783,42.496773,-83.44285,775.48,905.9799889,,0,10.374194,,18 / 18,108018,2018-07-24 13:17:11:606
-0.9978,3.1585,9.4373,-0.9894,3.0718,9.2604,0.0085,0.0205,0.0021,1.00E-04,0.0015,2.00E-04,3573,3.05,10.9,-18.76,356.67,-18.26,6.12,3.1,983.68,52.978,42.496773,-83.44285,775.48,905.9799889,,0,10.374194,,18 / 18,108519,2018-07-24 13:17:12:107
-1.0122,3.1442,9.4588,-0.9922,3.0728,9.2598,-0.0078,0.0099,0.0114,7.00E-04,1.00E-04,-2.00E-04,3570,4.28,11.57,-17.91,353.15,-18.26,6.12,3.1,983.7,55.231,42.496773,-83.44285,775.48,905.9799889,,0,10.374194,,18 / 18,109018,2018-07-24 13:17:12:606
-1.0098,3.1059,9.3823,-0.9919,3.0705,9.2606,-0.003,-0.0086,-0.0257,0.0014,-1.00E-04,-4.00E-04,3581,4.27,11.04,-19.3,353.25,-18.24,6.12,3.1,983.71,56.984,42.496773,-83.44285,775.48,905.9799889,,0,10.374194,,16 / 18,109519,2018-07-24 13:17:13:107
-1.017,3.0939,9.3464,-0.9921,3.0702,9.2607,0.0031,-0.0044,-0.0129,5.00E-04,0.0011,0,3570,2.82,10.37,-19.21,356.47,-18.26,6.12,3.1,983.7,56.662,42.496773,-83.44285,775.48,905.9799889,,0,10.374194,,16 / 18,110019,2018-07-24 13:17:13:607
-1.0026,3.1154,9.4229,-0.9927,3.0705,9.2605,0.0054,0.0096,-0.0014,5.00E-04,5.00E-04,0,3581,2.98,10.31,-20.72,357.35,-18.25,6.11,3.1,983.69,57.204,42.496773,-83.44285,775.48,905.9799889,,0,10.374194,,17 / 18,110519,2018-07-24 13:17:14:107
-1.0217,3.1514,9.3679,-0.9926,3.0735,9.2595,-0.0034,0.0013,-0.0166,5.00E-04,0.0015,0,3578,3.13,11.74,-18.77,356.85,-18.25,6.12,3.1,983.69,60.83,42.496773,-83.44285,775.48,905.9799889,,0,10.374194,,17 / 18,111019,2018-07-24 13:17:14:607
-1.0026,3.137,9.4014,-0.9937,3.0729,9.2596,-0.0023,1.00E-04,2.00E-04,-7.00E-04,-0.0024,0,3578,6.23,11.3,-19.08,346.62,-18.25,6.12,3.1,983.7,58.57,42.496773,-83.44285,775.48,905.9799889,,0,10.374194,,17 / 18,111518,2018-07-24 13:17:15:106
-0.9978,3.1131,9.4301,-0.991,3.07,9.2608,0.0109,-0.003,0.0117,-7.00E-04,-9.00E-04,-6.00E-04,3581,3.15,10.42,-17.29,355.51,-18.26,6.13,3.1,983.69,55.146,42.496773,-83.44285,775.48,905.9799889,,0,10.374194,,17 / 18,112018,2018-07-24 13:17:15:606
-1.017,3.1178,9.4971,-0.9933,3.0692,9.2609,0.0021,-0.0036,0.0193,-7.00E-04,-9.00E-04,-4.00E-04,3578,1.66,9.81,-18.44,359.74,-18.24,6.13,3.1,983.7,55.906,42.496773,-83.44285,775.48,905.9799889,,0,10.374194,,17 / 18,112518,2018-07-24 13:17:16:106
-1.0146,3.1154,9.4301,-0.9927,3.0704,9.2605,0.0054,-7.00E-04,0.0138,-9.00E-04,-9.00E-04,2.00E-04,3578,3.57,10.35,-19.63,353.38,-18.26,6.13,3.1,983.69,56.972,42.496773,-83.44285,775.48,905.9799889,,0,10.374194,,17 / 18,113018,2018-07-24 13:17:16:606
-1.0217,3.137,9.5115,-0.9939,3.0726,9.2597,-0.0052,0.0086,0.0191,-0.0011,-0.0018,0,3578,3.85,10.51,-19.13,353.27,-18.26,6.14,3.1,983.71,57.479,42.496773,-83.44285,775.48,905.9799889,,0,10.374194,,17 / 18,113518,2018-07-24 13:17:17:106
-1.0337,3.1633,9.5186,-0.9922,3.072,9.2601,-0.0046,0.0178,0.0182,-7.00E-04,-0.003,-2.00E-04,3578,4.3,11.11,-18.47,352.75,-18.24,6.12,3.1,983.7,56.089,42.496773,-83.44285,775.48,905.9799889,,0,10.374194,,17 / 18,114019,2018-07-24 13:17:17:607
-1.0146,3.137,9.4899,-0.9917,3.0718,9.2602,-2.00E-04,0.0195,0.0336,1.00E-04,-0.002,2.00E-04,3581,3.29,10.64,-18.88,356.67,-18.25,6.12,3.1,983.69,55.951,42.496773,-83.44285,775.48,905.9799889,,0,10.374194,,17 / 18,114518,2018-07-24 13:17:18:106
-0.9978,3.125,9.4493,-0.9919,3.0729,9.2598,-0.0025,-5.00E-04,0.0086,-9.00E-04,-0.0011,0,3578,4.39,11.22,-19.13,353.25,-18.24,6.12,3.1,983.71,55.744,42.496773,-83.44285,775.48,905.9799889,,0,10.374194,,17 / 18,115018,2018-07-24 13:17:18:606
-1.0074,3.1633,9.5019,-0.9943,3.0719,9.2599,-0.0016,0.013,0.0211,-9.00E-04,-5.00E-04,-6.00E-04,3582,5.38,11.87,-19.69,350.94,-18.27,6.12,3.1,983.71,54.411,42.496773,-83.44285,775.48,905.9799889,,0,10.374194,,17 / 18,115518,2018-07-24 13:17:19:106
-1.0122,3.1466,9.5306,-0.9922,3.0716,9.2602,0.0067,0.0196,0.0294,-5.00E-04,5.00E-04,-6.00E-04,3578,3.87,11.14,-19.73,353.74,-18.25,6.13,3.1,983.71,54.554,42.496773,-83.44285,775.48,905.9799889,,0,10.374194,,17 / 18,116018,2018-07-24 13:17:19:606
-1.0026,3.1346,9.5043,-0.9949,3.0725,9.2596,-0.0025,0.0027,0.0217,-7.00E-04,-5.00E-04,-2.00E-04,3578,4.01,10.01,-19.87,353.36,-18.26,6.12,3.1,983.71,55.754,42.496773,-83.44285,775.48,905.9799889,,0,10.374194,,16 / 18,116518,2018-07-24 13:17:20:106
-0.9906,3.1585,9.4756,-0.9926,3.0713,9.2602,0.0054,0.0138,0.0064,-5.00E-04,-0.0034,-2.00E-04,3578,3.72,10.78,-19.29,353.26,-18.23,6.13,3.1,983.71,56.179,42.496773,-83.44285,775.48,905.9799889,,0,10.374194,,16 / 18,117018,2018-07-24 13:17:20:606
-1.0074,3.1394,9.4732,-0.9939,3.0705,9.2604,0.0013,0.0207,0.0213,-1.00E-04,-3.00E-04,2.00E-04,3578,3.8,9.63,-17.5,351.75,-18.25,6.13,3.1,983.68,64.31,42.496773,-83.44285,775.48,905.9799889,,0,10.374194,,16 / 18,117518,2018-07-24 13:17:21:106
-0.9739,3.0891,9.4516,-0.993,3.0694,9.2608,0.0048,-0.0152,3.00E-04,-1.00E-04,-0.002,2.00E-04,3581,3.31,10.76,-19.84,357.11,-18.24,6.13,3.1,983.68,62.094,42.496773,-83.44285,775.48,905.9799889,,0,10.374194,,16 / 18,118020,2018-07-24 13:17:21:608
-0.9811,3.1514,9.5091,-0.9952,3.0698,9.2605,-6.00E-04,0.0092,0.0202,-0.0015,-7.00E-04,0,3570,4.07,10.76,-18.42,352.77,-18.26,6.13,3.1,983.69,61.085,42.496773,-83.44285,775.48,905.9799889,,0,10.374194,,16 / 18,118518,2018-07-24 13:17:22:106
-1.0122,3.1226,9.5186,-0.9952,3.0676,9.2612,-0.0021,0.0138,0.0298,-9.00E-04,7.00E-04,-4.00E-04,3570,4.34,10.77,-19.76,353.74,-18.23,6.12,3.1,983.7,61.107,42.496773,-83.44285,775.48,905.9799889,,0,10.374194,,16 / 18,119020,2018-07-24 13:17:22:608
-1.1868,3.649,9.3535,-1.0246,3.1586,9.2273,-0.1359,0.4394,-0.1078,0.0048,0.008,0.0082,3570,4.22,10.66,-18.69,353.56,-18.79,6.34,3.1,983.69,59.138,42.496773,-83.44285,775.48,905.9799889,,0,10.374194,,16 / 18,119518,2018-07-24 13:17:23:106
-1.3017,3.8501,9.1621,-1.1421,3.5012,9.0889,-0.1332,0.325,-0.1271,-0.0037,0.0217,0.0473,3570,3.24,11.14,-18.98,357.67,-20.4,6.91,3.1,983.7,58.842,42.496773,-83.44285,775.48,905.9799889,,0,10.374194,,16 / 18,120018,2018-07-24 13:17:23:606
-1.2371,3.4624,9.1813,-1.1683,3.54,9.0705,-0.0029,-0.1237,0.0078,-0.009,0.0182,0.0798,3556,3.26,10.97,-19.85,358.63,-21.16,7.34,3.1,983.69,61.264,42.496773,-83.44285,775.48,905.9799889,,0,10.374194,,16 / 18,120519,2018-07-24 13:17:24:107
-0.9858,3.0054,9.4349,-1.0198,3.252,9.1954,0.0844,-0.2609,0.0792,-0.006,0.0147,0.0786,3552,3.2,10.79,-18.45,356.81,-19.77,6.57,3.1,983.68,61.208,42.496773,-83.44285,775.48,905.9799889,,0,10.374194,,16 / 18,121018,2018-07-24 13:17:24:606
-0.8327,2.6488,9.7412,-0.901,2.9339,9.314,0.1291,-0.3418,0.1391,-0.0096,0.0107,0.0591,3541,2,10.08,-19.42,359.39,-17.41,5.53,3.1,983.7,56.106,42.496773,-83.442856,776.33,905.9799889,,2.52,10.374194,238,17 / 18,121518,2018-07-24 13:17:25:106
-0.7633,2.7829,9.6646,-0.8263,2.7451,9.3783,0.0397,-0.0383,0.0263,-0.0023,0.0119,0.0352,3534,5.09,6.98,-26.54,349.7,-16.26,5.04,3.1,983.71,56.437,42.496773,-83.442856,776.33,900.9994561,,2.52,10.374194,238,17 / 18,122019,2018-07-24 13:17:25:607
-0.8925,2.8977,9.5163,-0.8306,2.7994,9.3618,-0.0023,0.0334,0.0043,-0.0037,0.01,0.0212,3537,7.04,6.74,-26.42,341.87,-16.59,5.07,3.1,983.68,55.688,42.49677,-83.44286,776.26,900.9994561,,1.69,10.374194,238,17 / 18,122519,2018-07-24 13:17:26:107
-0.926,2.9336,9.4804,-0.8303,2.8247,9.3543,-0.0174,0.0582,-0.024,-0.0011,0.0015,0.0088,3537,4.93,8.02,-22.7,348.38,-16.65,5.06,3.1,983.67,56.311,42.49677,-83.44286,776.26,900.9994561,,1.69,10.374194,238,17 / 18,123018,2018-07-24 13:17:26:606
-0.9452,3.0245,9.4134,-0.8418,2.8825,9.3356,-0.0272,0.0719,-0.0409,7.00E-04,-0.0012,0.0014,3522,5.06,6.72,-23.11,347.87,-17.09,5.15,3.1,983.67,58.088,42.49677,-83.44286,776.26,900.9994561,,1.69,10.374194,238,18 / 18,123519,2018-07-24 13:17:27:107
-0.9212,3.0915,9.4349,-0.881,3.0063,9.2928,-0.0374,0.0547,-0.06,-0.0037,1.00E-04,0,3529,5.77,7.53,-24.52,346.68,-17.74,5.36,3.1,983.68,56.748,42.49677,-83.44286,776.26,900.9994561,,1.69,10.374194,238,18 / 18,124019,2018-07-24 13:17:27:607
-0.8853,3.1178,9.3248,-0.8865,3.0446,9.2798,-1.00E-04,0.0196,-0.0453,0.0011,0.0052,0,3529,4.06,7.79,-23.89,353.6,-18.09,5.46,3.1,983.68,57.037,42.49677,-83.44286,776.26,900.9994561,,1.69,10.374194,238,18 / 18,124519,2018-07-24 13:17:28:107
-0.7896,3.1633,9.5522,-0.894,3.055,9.2757,0.0259,0.0209,0.0336,0.0022,-0.0046,2.00E-04,3529,2.36,9.18,-18.21,358.94,-18.15,5.51,3.1,983.7,56.179,42.49677,-83.44286,776.26,900.9994561,,1.69,10.374194,238,18 / 18,125019,2018-07-24 13:17:28:607
-0.871,3.0939,9.4493,-0.8938,3.0522,9.2766,0.0074,-0.0188,0.015,-0.0013,-0.002,-2.00E-04,3529,2.13,10.08,-18.81,359.39,-18.14,5.52,3.1,983.68,55.752,42.496765,-83.44287,772.9,900.9994561,,0,10.374194,,17 / 18,125518,2018-07-24 13:17:29:106
-0.8949,3.0724,9.3727,-0.896,3.0554,9.2753,0.0028,-0.018,-0.0097,-5.00E-04,-0.0034,4.00E-04,3529,2.57,8.99,-20.06,355.92,-18.16,5.53,3.1,983.67,56.274,42.496765,-83.44287,772.9,900.9994561,,0,10.374194,,17 / 18,126019,2018-07-24 13:17:29:607
-0.8973,3.1418,9.466,-0.8975,3.0562,9.275,-0.001,0.0118,0.0091,1.00E-04,-0.0026,2.00E-04,3529,1.39,9.05,-20.12,3.6,-18.16,5.53,3.1,983.68,56.535,42.496765,-83.44287,772.9,900.9994561,,0,10.374194,,17 / 18,126519,2018-07-24 13:17:30:107
-0.9141,3.0844,9.4062,-0.8972,3.0551,9.2753,-0.0013,-0.01,-0.0066,7.00E-04,-3.00E-04,0,3529,3.14,10.76,-18.9,355.97,-18.16,5.52,3.1,983.68,57.381,42.496765,-83.44287,772.9,900.9994561,,0,10.374194,,17 / 18,127019,2018-07-24 13:17:30:607
-0.8997,3.1131,9.4804,-0.8988,3.0531,9.2758,0.0011,-0.0092,0.0042,-1.00E-04,-0.0018,-2.00E-04,3526,2.52,9.06,-19.58,355.93,-18.14,5.53,3.1,983.69,57.069,42.496765,-83.44287,772.9,900.9994561,,0,10.374194,,17 / 18,127518,2018-07-24 13:17:31:106
-0.9117,3.1178,9.3918,-0.8967,3.0566,9.2749,-0.0026,0.0146,-0.0065,7.00E-04,0.0015,0,3529,1.85,8.98,-18.65,359.37,-18.15,5.53,3.1,983.68,57.116,42.496765,-83.44287,772.9,900.9994561,,0,10.374194,,17 / 18,128019,2018-07-24 13:17:31:607
-0.8877,3.1131,9.4732,-0.8967,3.0545,9.2756,0.007,-0.0013,0.0127,0.0014,2.00E-04,-2.00E-04,3529,2.25,9.14,-18.81,359.36,-18.15,5.52,3.1,983.67,57.879,42.496765,-83.44287,772.9,900.9994561,,0,10.374194,,17 / 18,128518,2018-07-24 13:17:32:106
-0.8829,3.1035,9.4205,-0.897,3.0557,9.2752,0.0015,-0.0179,-0.0076,5.00E-04,-0.0014,-2.00E-04,3518,2.98,8.16,-19.71,355.64,-18.15,5.53,3.1,983.69,58.975,42.496765,-83.44287,772.9,900.9994561,,0,10.374194,,17 / 18,129018,2018-07-24 13:17:32:606
-0.8853,3.1059,9.5139,-0.8989,3.0562,9.2748,0.0106,0.0088,0.0179,4.00E-04,0.0024,4.00E-04,3526,2.65,7.7,-20.39,355.65,-18.16,5.53,3.1,983.69,58.158,42.496765,-83.44287,772.9,900.9994561,,0,10.374194,,17 / 18,129519,2018-07-24 13:17:33:107
-0.8877,3.1226,9.4875,-0.8987,3.0565,9.2747,6.00E-04,-0.0084,0.0104,-7.00E-04,-2.00E-04,0,3529,2.97,8.23,-19.96,355.64,-18.16,5.53,3.1,983.7,55.559,42.496765,-83.44287,772.9,900.9994561,,0,10.374194,,17 / 18,130018,2018-07-24 13:17:33:606
-0.9212,3.0796,9.454,-0.8972,3.0568,9.2748,0.0013,-0.0121,-0.0016,4.00E-04,0.0022,-4.00E-04,3515,2.65,8.1,-19.44,355.13,-18.16,5.53,3.1,983.68,57.52,42.496765,-83.44287,772.9,900.9994561,,0,10.374194,,17 / 18,130518,2018-07-24 13:17:34:106
-0.9117,3.1298,9.4301,-0.8997,3.0571,9.2744,-0.0016,-0.008,-0.003,-1.00E-04,0.0037,0,3518,3.37,9.38,-20.23,355.91,-18.17,5.52,3.1,983.68,57.139,42.496765,-83.44287,772.9,900.9994561,,0,10.374194,,17 / 18,131020,2018-07-24 13:17:34:608
-0.926,3.125,9.4899,-0.8992,3.0583,9.2741,-0.0016,-0.0101,0.0012,5.00E-04,6.00E-04,2.00E-04,3522,1.31,8.8,-19.46,3.31,-18.17,5.54,3.1,983.68,59.473,42.496765,-83.44287,772.9,900.9994561,,0,10.374194,,17 / 18,131519,2018-07-24 13:17:35:107
-0.9571,3.1035,9.466,-0.899,3.0576,9.2743,-0.001,-0.0149,0.0093,-0.0011,-4.00E-04,2.00E-04,3519,2.82,8.89,-18.75,355.46,-18.18,5.53,3.1,983.68,57.311,42.496765,-83.44287,772.9,900.9994561,,0,10.374194,,17 / 18,132019,2018-07-24 13:17:35:607
-0.9117,3.1322,9.5545,-0.899,3.0584,9.2741,-0.0018,0.0123,0.039,-3.00E-04,-0.002,0,3522,1.83,9.25,-19.01,359.38,-18.17,5.54,3.1,983.66,59.555,42.496765,-83.44287,772.9,900.9994561,,0,10.374194,,17 / 18,132518,2018-07-24 13:17:36:106
-0.9308,3.1466,9.4923,-0.8978,3.0586,9.2741,0.004,0.0118,0.0152,-3.00E-04,-0.0018,-4.00E-04,3522,2.85,9.65,-20.15,356.18,-18.18,5.54,3.1,983.7,58.353,42.496765,-83.44287,772.9,900.9994561,,0,10.374194,,17 / 18,133018,2018-07-24 13:17:36:606
-0.9284,3.1059,9.4469,-0.8997,3.0581,9.2741,0.0019,-0.0085,0.0117,-5.00E-04,-0.0031,-2.00E-04,3519,3.24,8.97,-20.14,355.94,-18.17,5.54,3.1,983.69,55.813,42.496765,-83.44287,772.9,900.9994561,,0,10.374194,,17 / 18,133518,2018-07-24 13:17:37:106
-0.9308,3.125,9.4612,-0.8985,3.0575,9.2744,7.00E-04,-5.00E-04,0.0201,-5.00E-04,-2.00E-04,-4.00E-04,3519,2.21,9.04,-19.01,359.38,-18.19,5.54,3.1,983.69,56.338,42.496765,-83.44287,772.9,900.9994561,,0,10.374194,,17 / 18,134018,2018-07-24 13:17:37:606
-0.9452,3.1394,9.4086,-0.8999,3.0605,9.2733,-0.0077,-0.0061,-0.0199,-9.00E-04,0.0018,2.00E-04,3522,2.41,10.04,-17.68,359.05,-18.18,5.54,3.1,983.67,57.863,42.496765,-83.44287,772.9,900.9994561,,0,10.374194,,17 / 18,134519,2018-07-24 13:17:38:107
-0.9141,3.1035,9.3081,-0.897,3.0613,9.2733,0.0022,0.0089,-0.0349,-1.00E-04,-0.0033,-4.00E-04,3510,2.12,9.68,-20.13,359.78,-18.17,5.54,3.1,983.67,58.777,42.496765,-83.44287,772.9,900.9994561,,0,10.374194,,17 / 18,135018,2018-07-24 13:17:38:606
-0.9165,3.1083,9.3368,-0.8969,3.0604,9.2736,0.0021,0.0068,-0.0242,-3.00E-04,-0.0026,0,3518,1.66,8.39,-19.25,359.32,-18.18,5.52,3.1,983.7,57.361,42.496765,-83.44287,772.9,900.9994561,,0,10.374194,,17 / 18,135519,2018-07-24 13:17:39:107
-0.8901,3.0772,9.4158,-0.8985,3.0592,9.2739,0.0067,-4.00E-04,-0.0194,0.001,0.0014,-2.00E-04,3515,1.88,7.79,-20.17,359.75,-18.18,5.54,3.1,983.7,57.716,42.496765,-83.44287,772.9,900.9994561,,0,10.374194,,17 / 18,136019,2018-07-24 13:17:39:607
-0.9188,3.0987,9.4684,-0.8971,3.0604,9.2736,8.00E-04,-0.0166,0.003,4.00E-04,0.0024,-2.00E-04,3506,1.75,8.81,-18.43,358.96,-18.18,5.53,3.1,983.69,57.91,42.496765,-83.44287,772.9,900.9994561,,0,10.374194,,17 / 18,136519,2018-07-24 13:17:40:107
-0.9212,3.0796,9.4852,-0.8971,3.0589,9.2741,-0.0017,-0.019,0.0051,-1.00E-04,-0.002,4.00E-04,3515,2.03,8.99,-19.17,359.37,-18.18,5.53,3.1,983.7,56.501,42.496765,-83.44287,772.9,900.9994561,,0,10.374194,,17 / 18,137019,2018-07-24 13:17:40:607
-0.8829,3.1154,9.4923,-0.8978,3.0595,9.2738,0.0066,0.0114,0.031,-7.00E-04,-0.0029,0,3512,1.71,8.23,-19.48,359.34,-18.19,5.54,3.1,983.68,56.535,42.496765,-83.44287,772.9,900.9994561,,0,10.374194,,18 / 18,137518,2018-07-24 13:17:41:106
-0.926,3.137,9.4732,-0.9008,3.0588,9.2738,-0.0035,-0.0069,0.0069,6.00E-04,0.0022,0,3518,2.46,8.5,-19.39,359.35,-18.17,5.55,3.1,983.68,60.099,42.496765,-83.44287,772.9,900.9994561,,0,10.374194,,18 / 18,138020,2018-07-24 13:17:41:608
-0.9188,3.1131,9.4421,-0.9003,3.0598,9.2735,-0.0016,-0.0063,0.0082,5.00E-04,0.002,0,3518,1.94,8.78,-19.15,359.39,-18.18,5.55,3.1,983.69,61.665,42.496765,-83.44287,772.9,900.9994561,,0,10.374194,,18 / 18,138518,2018-07-24 13:17:42:106
-0.9117,3.1226,9.3153,-0.898,3.0626,9.2728,-8.00E-04,0.0172,-0.0341,4.00E-04,-0.0018,-2.00E-04,3515,1.92,8.65,-17.68,358.98,-18.17,5.54,3.1,983.68,61.327,42.496765,-83.44287,772.9,900.9994561,,0,10.374194,,18 / 18,139019,2018-07-24 13:17:42:607
-0.8758,3.1131,9.4038,-0.8992,3.0592,9.2738,0.0061,0.0077,-0.0039,-7.00E-04,-0.0014,-2.00E-04,3515,3.2,9.66,-19.19,355.75,-18.18,5.54,3.1,983.69,60.562,42.496765,-83.44287,772.9,900.9994561,,0,10.374194,,17 / 18,139518,2018-07-24 13:17:43:106
-0.8901,3.1059,9.3368,-0.8987,3.0606,9.2734,6.00E-04,0.0075,-0.0212,-3.00E-04,-0.0026,-2.00E-04,3506,2.27,9.42,-20.63,0.13,-18.18,5.53,3.1,983.68,63.992,42.496765,-83.44287,772.9,900.9994561,,0,10.374194,,17 / 18,140018,2018-07-24 13:17:43:606
-0.8901,3.0844,9.411,-0.8997,3.0586,9.274,0.008,-0.0039,-0.0073,-0.0011,-4.00E-04,2.00E-04,3507,2.74,9.29,-19.34,355.47,-18.17,5.54,3.1,983.66,65.138,42.496765,-83.44287,772.9,900.9994561,,0,10.374194,,18 / 18,140520,2018-07-24 13:17:44:108
-0.9045,3.07,9.454,-0.8986,3.0596,9.2737,0.0035,-0.018,-0.004,-3.00E-04,-0.0014,0,3507,2.57,9.42,-18.77,355.46,-18.18,5.53,3.1,983.66,67.328,42.496765,-83.44287,772.9,900.9994561,,0,10.374194,,18 / 18,141018,2018-07-24 13:17:44:606
-0.9236,3.0796,9.4804,-0.8919,3.0412,9.2804,-7.00E-04,0.0039,0.0258,-0.0047,-0.0014,-0.0025,3510,2.5,8.79,-18.87,359.31,-18.07,5.49,3.1,983.66,65.307,42.496765,-83.44287,772.9,900.9994561,,0,10.374194,,18 / 18,141518,2018-07-24 13:17:45:106
-1.0959,3.8764,9.2363,-0.9356,3.1469,9.2408,-0.1972,0.7545,-0.1693,0.0105,0.0104,0.0144,3510,3.27,9.36,-18.37,355.22,-18.5,5.7,3.1,983.67,58.673,42.496765,-83.44287,772.9,900.9994561,,0,10.374194,,18 / 18,142018,2018-07-24 13:17:45:606
-1.3902,4.1468,8.942,-1.0605,3.5609,9.0756,-0.2265,0.5894,-0.2092,-0.0013,0.0198,0.0602,3500,2.7,9.09,-18.72,357.11,-21.29,6.66,3.1,983.69,58.404,42.496765,-83.44287,772.9,900.9994561,,0,10.374194,,18 / 18,142519,2018-07-24 13:17:46:107
-1.4883,4.8,8.7745,-1.0831,3.8054,8.9731,-0.4012,0.8314,-0.3724,-0.0284,0.0438,0.1435,3484,1.1,6.88,-18.6,5.35,-22.66,6.9,3.1,983.67,58.887,42.496765,-83.44287,772.9,900.9994561,,0,10.374194,,18 / 18,143019,2018-07-24 13:17:46:607
-1.5458,4.1157,8.9874,-1.1492,3.8486,8.9464,-0.4242,0.2177,-0.2116,-0.0255,0.0387,0.192,3451,2.07,7.29,-17.21,0.79,-23.11,7.32,3.1,983.69,57.802,42.496758,-83.44288,769.29,900.9994561,,4.28,10.374194,211,18 / 18,143519,2018-07-24 13:17:47:107
-1.6606,2.924,9.2961,-1.2293,3.8029,8.9553,-0.2876,-1.0891,0.3141,-0.0556,0.0393,0.2364,3421,0.2,4.77,-16.7,12.47,-23.38,8.23,3.1,983.7,55.432,42.496758,-83.44288,769.29,901.1960982,,4.28,10.374194,211,18 / 18,144019,2018-07-24 13:17:47:607
-1.0624,1.8449,9.8034,-1.0528,3.3537,9.155,0.0428,-1.6297,0.4909,-0.0332,0.0401,0.1777,3403,-2.92,5.46,-19.84,24.43,-21.45,6.82,3.1,983.67,56.19,42.496735,-83.442894,768.99,901.1960982,,9.25,10.374194,203.1,18 / 18,144519,2018-07-24 13:17:48:107
-0.9069,1.0744,10.0164,-0.9694,2.9847,9.291,0.2251,-1.9705,0.5517,-0.0353,0.0409,0.1217,3384,-2.77,5.36,-19.64,24.95,-18.31,5.99,3.1,983.71,54.185,42.496735,-83.442894,768.99,901.1960982,,9.25,10.374194,203.1,18 / 18,145018,2018-07-24 13:17:48:606
-0.6102,1.876,9.8441,-0.6988,2.16,9.5403,0.1745,-0.3003,0.1013,-0.0108,0.0161,0.0739,3385,-4.01,2.77,-19.26,37.3,-12.83,4.21,3.1,983.69,53.481,42.496716,-83.4429,770.14,901.1960982,,7.38,10.374194,194.1,18 / 18,145518,2018-07-24 13:17:49:106
-0.804,3.137,9.5043,-0.7204,2.2026,9.5289,-0.1012,0.9235,-0.262,-0.0037,0.0218,0.0621,3407,-4.49,3.92,-19.24,33.9,-12.79,4.25,3.1,983.71,53.511,42.496716,-83.4429,770.14,901.1960982,,7.38,10.374194,194.1,18 / 18,146018,2018-07-24 13:17:49:606
-1.1127,3.4576,9.5019,-0.8622,2.6421,9.4046,-0.2467,0.7059,-0.1657,-0.0172,0.0261,0.104,3399,-4.19,4.06,-18.44,33.25,-15.63,5.24,3.1,983.69,55.442,42.496704,-83.44291,770.37,901.1960982,,3.06,10.374194,193.9,18 / 18,146518,2018-07-24 13:17:50:106
-1.876,4.4339,9.0808,-1.0207,2.984,9.2857,-0.8183,1.3292,-0.423,2.00E-04,0.0631,0.1857,3444,-5,3.23,-17.8,40.56,-16.99,5.84,3.1,983.68,57.185,42.496704,-83.44291,770.37,901.1960982,,3.06,10.374194,193.9,18 / 18,147022,2018-07-24 13:17:50:610
-2.3593,4.599,8.9276,-1.2378,3.283,9.1575,-1.2483,1.1514,-0.661,-0.0334,0.1214,0.3311,3481,-7.24,1.66,-17.97,51.1,-19.56,7.7,3.1,983.7,58.71,42.496693,-83.44291,771.59,901.1960982,,5.36,10.374194,193.2,18 / 18,147518,2018-07-24 13:17:51:106
-3.5079,4.1994,9.131,-1.4437,3.555,9.0249,-1.9578,0.5442,-0.4907,-0.0587,0.1991,0.5168,3511,-9.64,1.51,-16.93,59.55,-20.95,8.75,3.1,983.71,61.528,42.496693,-83.44291,771.59,901.1960982,,5.36,10.374194,193.2,18 / 18,148019,2018-07-24 13:17:51:607
-4.1874,3.5318,9.3296,-1.5295,3.942,8.8483,-2.501,-0.337,-0.3209,0.0128,0.1495,0.5833,3533,-13.37,0.66,-14.75,69.19,-23.11,9.88,3.1,983.69,63.54,42.49667,-83.4429,771.47,901.1960982,,11.84,10.374194,167.8,18 / 18,148518,2018-07-24 13:17:52:106
-2.802,4.9125,9.0568,-1.2908,4.2625,8.737,-1.3905,0.3386,-0.6148,-0.032,0.1134,0.4657,3555,-14.54,2.81,-15.15,64.61,-25.62,8.79,3.1,983.66,64.024,42.49667,-83.4429,771.47,901.1960982,,11.84,10.374194,167.8,18 / 18,149018,2018-07-24 13:17:52:606
-3.6371,5.5466,9.5091,-1.2916,3.9834,8.8676,-2.1435,1.1453,-0.3526,-0.1212,0.0507,0.2345,3529,-82.61,9.93,15.58,91.54,-23.97,8.29,3.1,983.65,64.49,42.49663,-83.44287,768.64,901.1960982,,17.78,10.374194,148.7,18 / 18,149519,2018-07-24 13:17:53:107
-3.9912,4.9125,9.7101,-1.4574,3.9788,8.844,-2.2981,0.6433,0.0097,-0.0278,0.11,0.3005,3649,-81.96,-13.82,29.95,114.92,-23.58,8.9,3.1,983.61,66.682,42.49663,-83.44287,768.64,901.1960982,,17.78,10.374194,148.7,18 / 18,150019,2018-07-24 13:17:53:607
-3.4529,4.7234,8.5878,-1.4649,4.1129,8.7812,-1.9698,0.5913,-0.3426,-0.0475,0.0446,0.2429,3746,-86.19,-16.78,27.46,112,-24.76,9.42,3.1,983.59,66.463,42.496597,-83.44274,767.62,901.1960982,,26.78,10.374194,115.5,18 / 18,150519,2018-07-24 13:17:54:107
-3.405,3.9601,8.6189,-1.6664,4.1331,8.7356,-1.4734,-0.1479,0.0257,-0.0296,0.1012,0.16,3765,-90.31,-18.33,23.54,111.53,-24.96,10.5,3.1,983.52,63.761,42.496597,-83.44274,767.62,901.1960982,,26.78,10.374194,115.5,18 / 18,151018,2018-07-24 13:17:54:606
-2.723,4.5559,9.5713,-1.8158,4.0808,8.7304,-1.1036,0.4115,-0.2534,-0.0151,0.0212,0.1228,3727,-95.21,-16.28,35.7,113.46,-24.46,11.76,3.1,983.49,63.726,42.496567,-83.44264,766.38,901.1960982,,30.71,10.374194,109.7,18 / 18,151519,2018-07-24 13:17:55:107
-3.1226,4.7713,8.6477,-1.9184,4.2345,8.6347,-0.91,0.2277,-0.5497,-0.0489,0.0285,0.1026,3809,-87.29,-11.79,33.6,113.22,-25.65,12.44,3.1,983.4,69.258,42.496567,-83.44264,766.38,901.1960982,,30.71,10.374194,109.7,18 / 18,152018,2018-07-24 13:17:55:606
-2.2134,5.19,8.9013,-1.8556,4.3418,8.5951,-0.2883,0.4627,-0.2452,-0.0053,0.0016,0.0519,3847,-83.81,-12.36,28.06,111.96,-26.28,12.18,3.1,983.31,66.309,42.496548,-83.44249,769.85,901.1960982,,39.67,10.374194,103.5,18 / 18,152519,2018-07-24 13:17:56:107
-1.3831,5.214,9.2148,-1.7531,4.4416,8.5656,0.3436,0.4776,0.1148,4.00E-04,8.00E-04,0.0065,3862,-86.37,-12.5,32.2,112.87,-26.64,11.89,3.1,983.29,66.361,42.496548,-83.44249,769.85,901.1960982,,39.67,10.374194,103.5,18 / 18,153019,2018-07-24 13:17:56:607
-1.2897,4.8861,8.4323,-1.6764,4.5104,8.5449,0.3404,0.0786,-0.3354,-9.00E-04,0.012,0.001,3869,-89.23,-13.6,36.54,114.77,-27.38,11.1,3.1,983.19,66.527,42.496536,-83.44233,767.88,901.1960982,,43.09,10.374194,100.4,18 / 18,153518,2018-07-24 13:17:57:106
-1.6869,4.9316,8.8415,-1.6644,4.5262,8.5389,0.2264,0.1035,-0.5352,-0.0133,-8.00E-04,0.0028,3861,-91.42,-12.65,33.31,112.65,-27.54,11.11,3.1,983.11,67.039,42.496536,-83.44233,767.88,901.1960982,,43.09,10.374194,100.4,18 / 18,154018,2018-07-24 13:17:57:606
-1.407,2.7709,10.3203,-1.5826,4.3178,8.6615,0.4351,-1.7239,0.6838,-0.0306,-0.0087,0.0085,3862,-88.76,-8.85,39.2,112.08,-26.67,10.58,3.1,982.91,68.632,42.496536,-83.44212,765.49,901.1960982,,50.22,13.832258,96.9,18 / 18,154519,2018-07-24 13:17:58:107
-0.9093,2.0818,8.5998,-1.4778,4.0832,8.7928,0.6522,-2.1758,0.546,-0.0062,-0.0267,0.0065,3812,-89.38,-13.66,27.17,110.09,-25,9.86,3.1,982.91,65.284,42.496536,-83.44212,765.49,901.1960982,,50.22,13.832258,96.9,18 / 18,155019,2018-07-24 13:17:58:607
-0.9691,1.9932,11.0429,-1.3515,3.8312,8.9255,0.6932,-1.9403,0.7915,0.0032,0.0122,-0.0092,3872,-89.01,-11.66,28.35,107.9,-23,8.61,3.1,982.94,64.919,42.496593,-83.4418,766.51,901.1960982,,71.28,10.374194,86.7,18 / 18,155519,2018-07-24 13:17:59:107
-0.804,2.0865,11.2845,-1.2392,3.5587,9.0538,0.6518,-1.4794,0.88,0.0117,-0.0024,-0.0086,3787,-88.54,-12.23,28.05,107.05,-21.5,7.94,3.1,982.93,64.632,42.496593,-83.4418,766.51,901.1960982,,71.28,10.374194,86.7,18 / 18,156019,2018-07-24 13:17:59:607
-0.5575,1.7324,10.2006,-1.1825,3.3556,9.1385,0.7231,-1.6826,0.8268,2.00E-04,4.00E-04,-0.007,3835,-90.65,-13.31,26.17,106.07,-20.01,7.37,3.1,982.96,63.7,42.4966,-83.44156,766.73,901.1960982,,70.63,10.374194,86.7,18 / 18,156518,2018-07-24 13:18:00:106
-0.1388,0.0479,9.0688,-1.109,2.9686,9.2805,0.7128,-2.7918,-0.6192,-0.0273,0.0053,-0.0011,3832,-89.46,-15.39,26.22,107.02,-18.71,7.16,3.1,983,64.899,42.4966,-83.44156,766.73,901.1960982,,70.63,10.374194,86.7,18 / 18,157018,2018-07-24 13:18:00:606
-0.5288,-0.1555,10.9639,-1.0538,2.5612,9.4075,0.5706,-2.5674,0.5922,-0.0174,-0.0059,0.0024,3788,-90.7,-13.4,25.64,104.3,-15.75,6.46,3.1,983.12,65.27,42.49661,-83.44134,767.68,901.1960982,,68.22,10.374194,87,18 / 18,157518,2018-07-24 13:18:01:106
0.0191,-0.1388,9.1861,-0.9606,2.2308,9.5011,0.6671,-2.2751,0.2982,-0.0273,-0.0053,0.0014,3799,-89.93,-13.8,27.05,104.33,-13.74,5.88,3.1,983.17,64.845,42.49661,-83.44134,767.68,901.1960982,,68.22,10.374194,87,18 / 18,158018,2018-07-24 13:18:01:606
-1.2634,-0.0311,12.0814,-0.9004,1.9916,9.56,0.3019,-2.0363,0.5559,0.0089,0.0141,0.0051,3754,-90.1,-13.47,26.86,102.88,-11.72,5.38,3.1,983.25,66.379,42.496616,-83.44114,768,901.1960982,,60.88,10.374194,87,16 / 18,158519,2018-07-24 13:18:02:107
-0.1484,0.2608,10.6696,-0.8306,1.6795,9.626,0.3514,-1.6395,0.8021,0.0386,0.0027,-0.0025,3806,-89.52,-13.6,26.44,102.78,-10.25,5.09,3.1,983.29,65.859,42.496616,-83.44114,768,901.1960982,,60.88,10.374194,87,16 / 18,159019,2018-07-24 13:18:02:607
-0.7083,-0.0885,10.1025,-0.7177,1.2952,9.6942,0.2734,-1.4419,0.1787,-0.0049,-2.00E-04,-0.0023,3814,-89.7,-13.14,27.09,101.16,-7.59,4.23,3.1,983.29,62.445,42.496624,-83.44095,769.35,901.1960982,,52.13,10.374194,87,16 / 18,159519,2018-07-24 13:18:03:107
-0.3996,-0.6915,10.1647,-0.6948,1.0887,9.7212,0.2433,-1.5947,0.6148,-0.0015,-0.001,0.0026,3776,-89.8,-13.76,27.22,101.42,-6.6,4.1,3.1,983.33,64.269,42.496624,-83.44095,769.35,901.1960982,,52.13,10.374194,87,16 / 18,160018,2018-07-24 13:18:03:606
-0.3661,-0.8686,10.7701,-0.6284,0.772,9.756,0.2868,-1.5991,0.628,0.0073,0.0161,0.0016,3757,-88.89,-13.44,27.29,100.21,-4.8,3.67,3.1,983.35,62.958,42.496624,-83.44081,770.33,901.1960982,,43.02,10.374194,87,16 / 18,160518,2018-07-24 13:18:04:106
-0.4068,-0.3087,10.7175,-0.5388,0.4561,9.7812,0.1552,-0.8807,0.3012,0.0014,0.0204,0.0059,3731,-87.17,-15.38,21.73,100.78,-2.8,3.23,3.1,983.45,61.385,42.496624,-83.44081,770.33,901.1960982,,43.02,10.374194,87,16 / 18,161018,2018-07-24 13:18:04:606
-0.7226,0.3948,10.3705,-0.5331,0.4043,9.7838,0.0693,-0.1456,-0.1209,-3.00E-04,-0.0077,0.0032,3702,-86.81,-15.99,20.72,101.26,-2.4,3.15,3.1,983.49,59.148,42.49663,-83.440704,770.69,901.1960982,,32.29,10.374194,86.5,16 / 18,161519,2018-07-24 13:18:05:107
-0.6126,1.2203,10.5141,-0.5385,0.4479,9.7816,-0.0527,0.839,-0.1124,0.0046,-0.0022,0.004,3385,-86.9,-14.13,21.57,100.01,-2.44,3.12,3.1,983.53,59.122,42.49663,-83.440704,770.69,901.1960982,,32.29,10.374194,86.5,16 / 18,162018,2018-07-24 13:18:05:606
-0.926,1.6582,9.9326,-0.6238,0.9163,9.7438,-0.1563,0.7014,-0.176,0.0022,-0.0085,0.0053,3630,-88.48,-15.41,22.91,101.52,-5.36,3.66,3.1,983.53,55.908,42.496635,-83.44062,771.24,901.1960982,,23.69,10.374194,85.8,16 / 18,162518,2018-07-24 13:18:06:106
-0.6269,1.2658,9.0975,-0.6404,1.2609,9.7041,0.1977,0.2231,-0.0255,0.016,0.0016,-0.0065,3695,-89.18,-14.94,21.86,101.63,-6.36,3.77,3.1,983.56,55.884,42.496635,-83.44062,771.24,901.1960982,,23.69,10.374194,85.8,16 / 18,163018,2018-07-24 13:18:06:606
-0.481,1.651,9.8082,-0.6325,1.4234,9.6822,0.0169,0.169,-0.0635,-3.00E-04,-0.001,-0.0123,3329,-89.3,-15.16,22.33,102.12,-8.11,3.75,3.1,983.55,57.197,42.49663,-83.44056,770.65,901.1960982,,19.87,10.374194,85.8,14 / 18,163518,2018-07-24 13:18:07:106
-0.603,1.7013,9.947,-0.679,1.511,9.6657,0.0208,0.1087,0.137,-0.0066,0.0012,0.0024,2779,-90.34,-12.89,26.13,101.44,-8.88,3.97,3.1,983.55,53.538,42.49663,-83.44056,770.65,901.1960982,,19.87,10.374194,85.8,14 / 18,164018,2018-07-24 13:18:07:606
-0.7537,1.4405,9.4852,-0.6862,1.5499,9.6591,0.3005,0.0424,-0.098,0.0128,-0.009,-0.0017,2977,-90.58,-14.24,28.17,102.22,-8.99,4.12,3.1,983.56,53.478,42.49664,-83.44051,768.47,901.1960982,,17.03,10.374194,86.2,14 / 18,164519,2018-07-24 13:18:08:107
-0.7083,1.6439,9.8752,-0.6923,1.5743,9.6547,0.0566,0.0416,-0.1462,0.0036,-0.0024,-0.0068,3366,-91.38,-13.73,26.11,102.06,-9.13,4.15,3.1,983.55,53.191,42.49664,-83.44051,768.47,904.2664791,,17.03,10.374194,86.2,14 / 18,165018,2018-07-24 13:18:08:606
-0.7777,1.4955,10.0427,-0.7118,1.5895,9.6508,-0.0658,0.0094,0.0716,0.0056,-0.0037,-0.0065,3412,-89.96,-13.47,27.02,101.76,-9.33,4.22,3.1,983.55,54.44,42.496643,-83.44046,768.57,904.2664791,,14.33,10.374194,86.4,15 / 18,165520,2018-07-24 13:18:09:108
-0.4929,1.7157,10.0044,-0.6965,1.5308,9.6614,0.0131,-0.1148,-0.0016,0.0111,-0.001,-0.0011,3186,-90.08,-14.96,26.86,102.84,-8.96,4.1,3.1,983.57,53.036,42.496643,-83.44046,768.57,904.2664791,,14.33,10.374194,86.4,15 / 18,166019,2018-07-24 13:18:09:607
-0.8088,1.5242,10.3872,-0.6924,1.4921,9.6677,-0.0225,-0.0135,0.0788,-0.0043,0.0053,-0.0049,2963,-89.96,-14.38,26.59,102.15,-8.75,4.1,3.1,983.55,54.713,42.496643,-83.44042,769.94,904.2664791,,11.63,10.374194,88.4,15 / 18,166518,2018-07-24 13:18:10:106
-0.9212,2.4574,9.7101,-0.7165,1.5753,9.6528,-0.1866,0.7815,-0.2118,0.004,0.0024,-0.0051,2873,-90.66,-13.66,27.23,102.15,-9.08,4.17,3.1,983.57,51.61,42.496643,-83.44042,769.94,904.2664791,,11.63,10.374194,88.4,15 / 18,167019,2018-07-24 13:18:10:607
-0.8566,2.4909,9.6263,-0.8141,2.1218,9.5397,-0.1072,0.2604,-0.0082,-0.0025,6.00E-04,-0.0047,3186,-90.84,-14.58,25.88,103.75,-12.1,4.74,3.1,983.57,50.452,42.496643,-83.4404,767.18,904.2664791,,8.78,10.374194,86.1,16 / 18,167518,2018-07-24 13:18:11:106
-0.8901,2.4024,9.5306,-0.8325,2.2599,9.5063,0.0026,0.0622,-0.1141,-7.00E-04,-0.0031,-0.0039,3343,-90.76,-13.53,26.08,103.57,-13.17,4.98,3.1,983.56,51.209,42.496643,-83.4404,767.18,904.2664791,,8.78,10.374194,86.1,16 / 18,168018,2018-07-24 13:18:11:606
-0.938,2.3976,9.7412,-0.8671,2.3227,9.4881,-0.0122,0.0349,-0.0467,0.0036,-6.00E-04,0.0089,3321,-91.08,-14.46,25.93,103.81,-13.7,5.22,3.1,983.57,51.763,42.496647,-83.44037,767.31,904.2664791,,8.46,10.374194,88.2,16 / 18,168519,2018-07-24 13:18:12:107
-0.8997,2.4048,9.612,-0.861,2.3619,9.4789,0.0171,-0.0328,-0.0156,0.0018,0.0012,0.0069,3430,-90.23,-14.4,27.32,104.18,-13.9,5.25,3.1,983.57,50.566,42.496647,-83.44037,767.31,904.2664791,,8.46,10.374194,88.2,16 / 18,169019,2018-07-24 13:18:12:607
-0.8136,1.5625,9.667,-0.8439,2.2511,9.5074,0.1165,-0.7095,0.1781,-0.0017,0.0075,0.0097,3633,-91.56,-12.85,26.41,102.9,-13.27,5.07,3.1,983.58,52.356,42.496647,-83.440346,768.31,904.2664791,,8.53,10.374194,87.9,16 / 18,169519,2018-07-24 13:18:13:107
-0.6293,1.7061,9.9422,-0.8061,1.966,9.5737,0.0277,-0.2968,0.1922,-0.0025,-0.0026,0.0091,3659,-90.02,-14.8,26.09,103.76,-11.66,4.77,3.1,983.57,53.199,42.496647,-83.440346,768.31,904.2664791,,8.53,10.374194,87.9,16 / 18,170018,2018-07-24 13:18:13:606
-0.8542,2.333,9.6814,-0.7763,1.9659,9.5762,-0.0331,0.28,-0.1297,0.0012,-0.0012,0.0051,3686,-91.04,-13.6,26.24,102.8,-11.11,4.58,3.1,983.56,52.895,42.496647,-83.440315,770.36,904.2664791,,7.27,10.374194,88.8,16 / 18,170519,2018-07-24 13:18:14:107
-0.8231,2.2349,9.667,-0.7971,2.1109,9.5435,-0.011,0.0792,-0.0227,-0.0021,-4.00E-04,0.0034,3656,-90.45,-14.54,27.33,103.52,-12.32,4.77,3.1,983.56,52.299,42.496647,-83.440315,770.36,904.2664791,,7.27,10.374194,88.8,16 / 18,171019,2018-07-24 13:18:14:607
-0.9236,2.2062,9.6574,-0.7984,2.1771,9.5286,-0.0168,-0.0361,0.1515,0.0067,0.0073,8.00E-04,3697,-91.13,-14.8,26.1,104,-12.83,4.79,3.1,983.56,51.976,42.496647,-83.44029,770.78,904.2664791,,5.76,10.374194,89.7,16 / 18,171518,2018-07-24 13:18:15:106
-0.7466,2.1033,9.7436,-0.7927,2.0989,9.5465,-0.0136,-0.0643,0.0361,-0.0023,2.00E-04,0.0016,3746,-91.02,-14.42,26.1,103.31,-12.56,4.75,3.1,983.57,52.313,42.496647,-83.44029,770.78,904.2664791,,5.76,10.374194,89.7,16 / 18,172018,2018-07-24 13:18:15:606
-0.8279,1.8951,9.7627,-0.78,2.0438,9.5595,0.0135,-0.0944,0.0248,-1.00E-04,0.0016,0.0024,3788,-90.45,-14.56,27.24,103.99,-12.03,4.66,3.1,983.56,52.44,42.496647,-83.44027,770.12,904.2664791,,5.11,10.374194,87.5,17 / 18,172519,2018-07-24 13:18:16:107
-0.7155,1.8449,9.667,-0.758,1.9217,9.5866,0.0324,-0.0939,0.053,0.0016,-0.0047,0.0018,3807,-91.39,-14.42,26.46,102.9,-11.47,4.55,3.1,983.57,53.207,42.496647,-83.44027,770.12,904.2664791,,5.11,10.374194,87.5,17 / 18,173018,2018-07-24 13:18:16:606
-0.8088,1.9071,9.6646,-0.7446,1.8671,9.5984,0.013,-0.0243,-0.0031,0.002,-4.00E-04,6.00E-04,3818,-90.91,-13.96,26.39,102.73,-10.99,4.46,3.1,983.57,53.714,42.496647,-83.44026,772,904.2664791,,3.78,10.374194,86.8,17 / 18,173519,2018-07-24 13:18:17:107
-0.6796,1.8927,9.8417,-0.7426,1.8678,9.5985,0.0013,0.0288,-0.0266,-0.0011,-0.0022,0.001,3818,-90.46,-15.1,26.89,103.57,-10.95,4.41,3.1,983.56,52.197,42.496647,-83.44026,772,904.2664791,,3.78,10.374194,86.8,17 / 18,174019,2018-07-24 13:18:17:607
-0.7633,2.2229,9.8632,-0.7564,1.9485,9.5813,-0.0466,0.1464,-0.0363,0.0014,0.002,4.00E-04,3821,-89.95,-14.74,26.62,103.76,-11.46,4.51,3.1,983.55,52.653,42.496647,-83.440254,773.07,904.2664791,,2.12,13.832258,87.7,16 / 18,174518,2018-07-24 13:18:18:106
-0.8542,2.4167,9.7316,-0.8039,2.1986,9.5231,-0.026,0.1164,-0.0289,0.002,0.0043,0,3822,-90.9,-14.26,27.93,102.2,-12.46,4.7,3.1,983.57,51.715,42.496647,-83.440254,773.07,904.2664791,,2.12,13.832258,87.7,16 / 18,175018,2018-07-24 13:18:18:606
-0.9021,2.4096,9.4971,-0.8261,2.3127,9.4942,-0.014,0.0812,-0.0141,2.00E-04,-0.0033,6.00E-04,3822,-91.23,-13.58,26.85,103.87,-13.64,4.97,3.1,983.56,52.075,42.496647,-83.440254,773.07,904.2664791,,2.12,13.832258,87.7,17 / 18,175518,2018-07-24 13:18:19:106
-0.8997,2.4718,9.4828,-0.8432,2.405,9.4697,-0.0287,0.1074,-0.0252,-7.00E-04,-0.0053,0.001,3810,-91.67,-13.6,27.34,103.88,-14.02,5.05,3.1,983.57,51.865,42.496647,-83.440254,773.07,904.2664791,,2.12,13.832258,87.7,17 / 18,176019,2018-07-24 13:18:19:607
-0.8542,2.4431,9.5522,-0.8459,2.4668,9.4536,0.0156,-0.0456,0.0342,-7.00E-04,0,0.0018,3821,-90.74,-12.89,27.6,103.83,-14.64,5.14,3.1,983.56,50.512,42.49665,-83.44025,775.9,904.2664791,,0.79,13.832258,87.3,17 / 18,176518,2018-07-24 13:18:20:106
-0.792,2.3545,9.5856,-0.8206,2.365,9.4817,0.0548,-0.0985,0.0411,-0.0015,0.0053,-2.00E-04,3795,-90.82,-13,27.89,103.61,-14.15,5,3.1,983.57,51.88,42.49665,-83.44025,775.9,904.2664791,,0.79,13.832258,87.3,17 / 18,177019,2018-07-24 13:18:20:607
-0.8542,2.2181,9.5426,-0.817,2.2829,9.5022,0.0187,-0.0555,0.0228,-0.0021,0.0024,-4.00E-04,3791,-90.88,-13.31,28.15,103.38,-13.55,4.91,3.1,983.57,52.159,42.49665,-83.44025,775.9,904.2664791,,0.79,13.832258,87.3,17 / 18,177518,2018-07-24 13:18:21:106
-0.8207,2.1823,9.8369,-0.8118,2.2263,9.516,-0.1197,0.6957,0.0481,0.0044,0.0031,2.00E-04,3791,-89.9,-13.22,27.09,103.22,-13.16,4.88,3.1,983.57,51.484,42.49665,-83.44025,775.9,904.2664791,,0.79,13.832258,87.3,17 / 18,178020,2018-07-24 13:18:21:608
-0.8734,2.5292,9.6909,-0.8148,2.2411,9.5123,-0.0017,0.0868,-0.045,-0.0011,0.0051,-2.00E-04,3799,-90.59,-12.61,26.84,103.11,-13.21,4.9,3.1,983.57,50.394,42.49665,-83.44025,775.9,904.2664791,,0.79,13.832258,87.3,17 / 18,178518,2018-07-24 13:18:22:106
-0.9045,2.4455,9.6215,-0.8265,2.3056,9.4959,-0.0214,0.0493,-0.0304,-0.0033,-0.0022,0,3788,-91.04,-13.8,27.55,103.98,-13.52,4.95,3.1,983.56,51.34,42.49665,-83.44025,775.9,904.2664791,,0.79,13.832258,87.3,17 / 18,179018,2018-07-24 13:18:22:606
-0.8542,2.3737,9.5952,-0.8308,2.3339,9.4886,0.0039,0.0109,-0.0062,-9.00E-04,-0.0012,0,3791,-89.06,-14.52,27.93,104.96,-13.73,5,3.1,983.58,52.782,42.49666,-83.440254,773.64,904.2664791,,0,13.832258,,17 / 18,179518,2018-07-24 13:18:23:106
-0.859,2.4048,9.6024,-0.8334,2.3431,9.4861,-0.0029,0.0075,-0.0057,5.00E-04,4.00E-04,2.00E-04,3791,-92.8,-12.84,27.11,103.09,-13.82,5.02,3.1,983.56,53.182,42.49666,-83.440254,773.64,904.2664791,,0,13.832258,,17 / 18,180019,2018-07-24 13:18:23:607
-0.8662,2.412,9.6526,-0.8348,2.3476,9.4848,-0.0109,0.012,-0.0081,0.0012,0.001,-2.00E-04,3787,-88.26,-12.23,27.22,103.15,-13.84,5.02,3.1,983.57,51.374,42.49666,-83.440254,773.64,904.2664791,,0,13.832258,,17 / 18,180518,2018-07-24 13:18:24:106
-0.8447,2.3785,9.6885,-0.8342,2.3474,9.485,0.0054,0.0095,0.0246,2.00E-04,8.00E-04,-2.00E-04,3787,-87.4,-14.39,20.8,103.54,-13.85,5.03,3.1,983.58,51.503,42.49666,-83.440254,773.64,904.2664791,,0,13.832258,,17 / 18,181018,2018-07-24 13:18:24:606
-0.8471,2.3689,9.5569,-0.8333,2.3474,9.485,0.0035,-0.0116,-0.0288,-5.00E-04,-0.0014,-4.00E-04,3795,-86.93,-16.06,20.81,104.77,-13.85,5.02,3.1,983.57,52.593,42.49666,-83.440254,773.64,904.2664791,,0,13.832258,,16 / 18,181518,2018-07-24 13:18:25:106
-0.8471,2.4,9.6957,-0.8335,2.3475,9.485,0.003,-8.00E-04,0.0143,-5.00E-04,0,2.00E-04,3791,-88.15,-14.36,24.08,103.89,-13.85,5.03,3.1,983.58,52.595,42.49666,-83.440254,773.64,904.2664791,,0,13.832258,,16 / 18,182018,2018-07-24 13:18:25:606
-0.8495,2.3545,9.6311,-0.8344,2.3474,9.4849,-0.0051,-0.0034,-0.0159,2.00E-04,-4.00E-04,-2.00E-04,3803,-88.01,-14.64,22.88,104.34,-13.85,5.03,3.1,983.57,50.534,42.49666,-83.440254,773.64,904.2664791,,0,13.832258,,15 / 18,182518,2018-07-24 13:18:26:106
-0.7729,2.3521,9.7388,-0.8264,2.3471,9.4857,0.0421,-0.0151,0.0033,-1.00E-04,-0.0039,-2.00E-04,3581,-87.94,-14.12,22.15,103.55,-13.85,4.98,3.1,983.56,53.93,42.49666,-83.440254,773.64,904.2664791,,0,13.832258,,15 / 18,183018,2018-07-24 13:18:26:606
-0.8495,2.388,9.734,-0.83,2.3472,9.4854,0.0029,0.0115,0.0166,-5.00E-04,0.0018,-1.00E-04,3795,-87.98,-12.86,23.56,103.27,-13.85,5.01,3.1,983.57,51.376,42.49666,-83.440254,773.64,904.2664791,,0,13.832258,,15 / 18,183518,2018-07-24 13:18:27:106
-0.8423,2.388,9.734,-0.8299,2.3457,9.4858,0.006,0.0027,0.0223,-7.00E-04,2.00E-04,1.00E-04,3791,-90.45,-13.57,26.49,103.92,-13.84,5,3.1,983.58,52.505,42.49666,-83.440254,773.64,904.2664791,,0,13.832258,,15 / 18,184019,2018-07-24 13:18:27:607
-0.8447,2.4072,9.6622,-0.8311,2.3446,9.4859,0.0032,0.0095,0.0043,1.00E-04,0.0014,-3.00E-04,3791,-89.76,-12.9,26.71,103.93,-13.85,5.02,3.1,983.57,52.116,42.496662,-83.44025,774.35,904.2664791,,0,13.832258,,16 / 18,184518,2018-07-24 13:18:28:106
-0.871,2.388,9.6598,-0.8263,2.3416,9.4871,0.006,0.0234,0.0049,-0.0017,-0.0021,-2.00E-04,3791,-90.97,-12.8,26.07,103.18,-13.81,4.98,3.1,983.58,53.671,42.496662,-83.44025,774.35,904.2664791,,0,13.832258,,16 / 18,185018,2018-07-24 13:18:28:606
-0.8459,2.3462,9.6778,-0.8298,2.3428,9.4865,5.00E-04,0.0158,0.0245,-0.0012,0,-4.00E-04,3791,-89.79,-13.58,27.25,104.08,-13.82,5,3.1,983.58,52.281,42.496662,-83.44025,774.35,904.2664791,,0,13.832258,,17 / 18,185518,2018-07-24 13:18:29:106
-0.853,2.3641,9.5498,-0.8301,2.3421,9.4866,-9.00E-04,-0.0081,0.0217,-0.001,9.00E-04,-2.00E-04,3788,-91.69,-12.54,27.07,103.21,-13.82,5,3.1,983.56,51.838,42.496662,-83.44025,774.35,904.2664791,,0,13.832258,,17 / 18,186018,2018-07-24 13:18:29:606
-0.853,2.4168,9.6419,-0.8301,2.3447,9.486,-0.001,0.0149,0.0259,-0.0017,-0.0015,-1.00E-04,3799,-90.38,-11.92,26.43,102.71,-13.83,5,3.1,983.57,52.256,42.49667,-83.44024,775.83,904.2664791,,0,13.832258,,17 / 18,186518,2018-07-24 13:18:30:106
-0.8578,2.394,9.6646,-0.8308,2.3446,9.4859,0.0048,0.0119,0.0286,0.0011,0.0031,-1.00E-04,3810,-90.74,-13.79,28.14,104.1,-13.83,5.01,3.1,983.57,52.588,42.49667,-83.44024,775.83,904.6137064,,0,13.832258,,17 / 18,187018,2018-07-24 13:18:30:606
-0.8375,2.3976,9.6742,-0.8314,2.3471,9.4853,2.00E-04,0.0203,-0.0032,0.0011,0.0029,2.00E-04,3806,-90.77,-14.11,27.39,103.94,-13.83,5,3.1,983.57,53.232,42.49667,-83.44024,775.83,904.6137064,,0,13.832258,,17 / 18,187519,2018-07-24 13:18:31:107
-0.8566,2.3713,9.7543,-0.8295,2.3441,9.4862,0.0129,-0.0203,0.0026,-1.00E-04,-0.0024,0,3803,-91.13,-13.68,27.72,104.1,-13.83,5,3.1,983.57,52.052,42.49667,-83.44024,775.83,904.6137064,,0,13.832258,,17 / 18,188019,2018-07-24 13:18:31:607
-0.8626,2.4371,9.5976,-0.8322,2.3445,9.4858,0.0044,0.0081,-0.0114,-4.00E-04,-0.0021,7.00E-04,3810,-91.1,-12.91,27.69,103.51,-13.83,5.01,3.1,983.57,51.307,42.49667,-83.44024,775.83,904.6137064,,0,13.832258,,16 / 18,188519,2018-07-24 13:18:32:107
-0.9392,2.5867,9.5007,-0.844,2.4314,9.4629,-0.012,0.1075,0.0153,0.0016,0.0052,2.00E-04,3806,-90.07,-13.88,26.43,104.12,-14.36,5.1,3.1,983.57,52.657,42.49667,-83.44024,775.83,904.6137064,,0,13.832258,,16 / 18,189019,2018-07-24 13:18:32:607
-0.8985,2.1703,9.5797,-0.85,2.4542,9.4565,0.0653,-0.2598,0.1161,-0.0036,0.0017,4.00E-04,3807,-89.71,-13.7,25.76,104.26,-14.68,5.21,3.1,983.57,52.215,42.49667,-83.44024,775.83,904.6137064,,0,13.832258,,16 / 18,189518,2018-07-24 13:18:33:106
-0.8243,2.2038,9.5701,-0.8211,2.2814,9.5022,0.0162,-0.0687,0.0448,0.0031,0.0083,5.00E-04,3799,-89.86,-13.94,26.65,103.94,-13.45,4.94,3.1,983.58,52.126,42.49667,-83.44024,775.83,904.6137064,,0,13.832258,,16 / 18,190018,2018-07-24 13:18:33:606
-0.8339,2.4168,9.6239,-0.8272,2.3163,9.4932,-0.0109,0.0361,-0.0631,2.00E-04,0.0043,5.00E-04,3810,-90.9,-12.97,27.61,103.4,-13.56,4.94,3.1,983.59,51.947,42.49667,-83.44024,775.83,904.6137064,,0,13.832258,,17 / 18,190518,2018-07-24 13:18:34:106
-0.8519,2.4072,9.5749,-0.8296,2.3395,9.4873,0.0087,0.0054,0.0028,-2.00E-04,0.002,-2.00E-04,3803,-91.14,-12.41,26.41,102.58,-13.8,5,3.1,983.59,51.674,42.49667,-83.44024,775.83,904.6137064,,0,13.832258,,17 / 18,191018,2018-07-24 13:18:34:606
-0.9272,2.918,9.5546,-0.8488,2.4427,9.4596,-0.0875,0.4578,-0.1043,0.0066,-0.0028,1.00E-04,3799,-91.72,-12.84,27.7,103.56,-14.3,5.09,3.1,983.59,52.29,42.49667,-83.44024,775.83,904.6137064,,0,13.832258,,17 / 18,191518,2018-07-24 13:18:35:106
-1.0696,3.2004,9.393,-0.9194,2.8379,9.3419,-0.05,0.3259,-0.0772,0.0013,-0.0058,1.00E-04,3799,-92.14,-14.57,26.1,105.36,-16.82,5.62,3.1,983.55,54.416,42.49667,-83.44024,775.83,904.6137064,,0,13.832258,,17 / 18,192018,2018-07-24 13:18:35:606
-0.9332,2.8618,9.4325,-0.9264,2.8736,9.3303,0.0326,-0.1114,0.041,-0.0051,-0.0053,0.0011,3803,-91.06,-14.94,27.7,106.06,-17.21,5.74,3.1,983.56,52.784,42.49667,-83.44024,775.83,904.6137064,,0,13.832258,,17 / 18,192518,2018-07-24 13:18:36:106
-0.8961,2.881,9.5809,-0.9141,2.846,9.34,0.026,0.0029,-0.0107,-9.00E-04,0.0011,4.00E-04,3803,-89.06,-13.16,28.5,105.22,-16.87,5.59,3.1,983.58,57.603,42.49667,-83.44024,775.83,904.6137064,,0,13.832258,,17 / 18,193018,2018-07-24 13:18:36:606
-0.9858,2.8068,9.2973,-0.8999,2.7732,9.3632,0.0161,-0.0443,-0.0345,-0.0025,4.00E-04,0.0012,3795,-89.19,-13.62,28.51,105.7,-16.61,5.51,3.1,983.57,58.839,42.496662,-83.44023,772.6,904.6137064,,3.06,13.832258,99.3,17 / 18,193519,2018-07-24 13:18:37:107
-1.1677,4.0522,9.2913,-0.921,2.9145,9.3181,-0.2307,1.3085,-0.3193,0.0233,0.0047,-0.0039,3795,-91,-13.8,27.74,105.47,-17.29,5.64,3.1,983.58,54.93,42.496662,-83.44023,772.6,904.6137064,,3.06,13.832258,99.3,17 / 18,194019,2018-07-24 13:18:37:607
-1.3759,5.2403,8.8008,-0.9812,3.231,9.207,-0.3904,1.9411,-0.5193,0.0055,-0.0039,-0.0084,3803,-90.34,-15.67,26.06,106.99,-18.82,5.99,3.1,983.57,58.997,42.496662,-83.44022,772.87,904.6137064,,5.18,13.832258,93.1,17 / 18,194518,2018-07-24 13:18:38:106
-1.4165,5.2845,8.6046,-1.2129,4.5164,8.6198,-0.2105,0.6659,-0.1356,0.0067,-0.0037,-0.006,3803,-90.06,-15.14,26.88,109.71,-26.4,7.66,3.1,983.57,63.806,42.496662,-83.44022,772.87,904.6137064,,5.18,13.832258,93.1,17 / 18,195018,2018-07-24 13:18:38:606
-1.2431,4.1228,9.3775,-1.2196,4.4407,8.6582,0.002,-0.5194,0.109,-0.0229,-0.0055,2.00E-04,3777,-90.81,-14.85,26.37,109.68,-27.18,8.06,3.1,983.57,61.818,42.49666,-83.440186,771.72,904.6137064,,12.56,13.832258,90.9,17 / 18,195519,2018-07-24 13:18:39:107
-1.3244,4.1599,9.204,-1.2107,4.4392,8.6601,0.0377,-0.4906,0.1989,0.0064,7.00E-04,0.0025,3596,-90.01,-14.84,26.23,110.2,-26.88,7.97,3.1,983.52,59.961,42.49666,-83.440186,771.72,904.6137064,,12.56,13.832258,90.9,17 / 18,196020,2018-07-24 13:18:39:608
-1.3029,4.3119,8.9731,-1.1882,4.3219,8.7224,-0.0829,-0.0405,-0.0469,0.0171,-0.0012,0.0054,3566,-90.86,-14.67,27.43,109.48,-26.03,7.75,3.1,983.49,60.306,42.49665,-83.440094,770.08,904.6137064,,21.89,13.832258,87.8,17 / 18,196518,2018-07-24 13:18:40:106
-1.3173,4.2915,8.455,-1.2119,4.2756,8.7419,0.0716,-0.374,-0.1941,-0.0011,0.0177,0.0023,3503,-88.44,-13.91,26.81,109.48,-25.85,7.89,3.1,983.48,61.322,42.49665,-83.440094,770.08,904.6137064,,21.89,13.832258,87.8,17 / 18,197018,2018-07-24 13:18:40:606
-1.4907,3.923,11.4185,-1.2089,4.1987,8.7795,0.1105,-0.5899,0.3033,-0.0127,-0.0168,0.0016,2452,-90.12,-13.42,27.74,109.95,-25.48,7.95,3.1,983.46,64.798,42.49666,-83.44002,770.09,904.6137064,,24.55,13.832258,86.7,17 / 18,197518,2018-07-24 13:18:41:106
-1.2275,4.0295,8.9085,-1.1863,4.1779,8.7925,0.1212,-0.3158,0.0429,-0.0034,-0.0065,0.0054,1847,-90.4,-14.82,27.29,109.2,-25.35,7.76,3.1,983.46,67.189,42.49666,-83.44002,770.09,904.6137064,,24.55,13.832258,86.7,17 / 18,198018,2018-07-24 13:18:41:606
-1.1318,3.6682,9.2219,-1.1713,4.0742,8.843,0.0805,-0.5567,-0.3834,-0.0069,-0.0021,0.001,1658,-89.6,-14.55,28.59,109.72,-24.67,7.61,3.1,983.4,64.074,42.496674,-83.439896,770.14,904.6137064,,30.71,13.832258,85.7,17 / 18,198520,2018-07-24 13:18:42:108
-0.7872,3.2112,9.4481,-1.1293,3.9124,8.9212,0.2374,-0.9277,0.2697,0.0111,-0.0034,0.004,3285,-91.71,-14.04,27.75,108.01,-23.51,7.21,3.1,983.37,63.035,42.496674,-83.439896,770.14,904.6137064,,30.71,13.832258,85.7,17 / 18,199018,2018-07-24 13:18:42:606
-1.0959,3.1011,10.0487,-1.142,3.8026,8.967,0.1158,-0.8383,0.4909,-0.0085,-0.0016,0.0015,3499,-89.33,-13.29,29.92,108.36,-23.02,7.31,3.1,983.35,61.689,42.49668,-83.439735,771.18,904.6137064,,40.39,13.832258,87,17 / 18,199518,2018-07-24 13:18:43:106
-0.7107,3.119,9.0425,-1.0973,3.7075,9.0123,0.3407,-0.8056,0.1945,-0.0268,-0.0276,-0.0012,2769,-88.9,-14.32,28.02,107.96,-22.21,6.94,3.1,983.33,61.728,42.49668,-83.439735,771.18,904.6137064,,40.39,13.832258,87,17 / 18,200018,2018-07-24 13:18:43:606
-1.1773,2.619,9.2734,-1.047,3.49,9.1046,0.1751,-0.8217,0.2877,0.0311,0.0016,-0.0015,3828,-90.1,-13.69,28.83,107.71,-21.44,6.79,3.1,983.33,64.887,42.49669,-83.43959,772.38,904.6137064,,43.31,13.832258,86.3,17 / 18,200519,2018-07-24 13:18:44:107
-0.8411,2.93,8.9444,-0.9536,3.2368,9.2078,0.1524,-0.1925,-0.0312,0.0094,-0.0188,-0.0021,3832,-86.54,-14.62,21.38,105.99,-19.35,6.12,3.1,983.32,63.873,42.49669,-83.43959,772.38,904.6137064,,43.31,13.832258,86.3,17 / 18,201019,2018-07-24 13:18:44:607
-0.7561,3.3045,8.9396,-0.9435,3.2419,9.2071,0.1613,0.0674,1.0383,0.051,0.0258,-0.0107,3825,-87.68,-15.18,21.42,105.57,-18.97,5.7,3.1,983.28,68.003,42.49671,-83.43943,773.08,904.6137064,,45.04,10.374194,86.6,17 / 18,201518,2018-07-24 13:18:45:106
-0.7238,2.857,9.2686,-0.9217,3.1612,9.2373,-0.1055,-0.206,0.3802,-0.0081,0.0144,0.0064,3788,-88.09,-15.76,24.5,106.76,-18.81,5.7,3.1,983.27,61.521,42.49671,-83.43943,773.08,904.6137064,,45.04,10.374194,86.6,17 / 18,202019,2018-07-24 13:18:45:607
-1.328,2.6824,10.6648,-0.9473,3.0852,9.2604,-0.0241,-0.3405,0.1263,0.0124,-0.0154,0.0125,3071,-86.07,-15.43,24.85,106.69,-18.31,5.97,3.1,983.26,64.09,42.49671,-83.43928,770.51,904.6137064,,47.45,10.374194,87.3,16 / 18,202518,2018-07-24 13:18:46:106
-0.8399,2.991,10.5177,-0.9583,3.0653,9.2659,-0.1108,-0.1508,0.6817,0.0294,0.0059,0.0016,2601,-85.98,-14.45,24.22,105.81,-18.21,5.9,3.1,983.24,63.561,42.49671,-83.43928,770.51,904.6137064,,47.45,10.374194,87.3,16 / 18,203019,2018-07-24 13:18:46:607
-1.2443,3.1143,9.5665,-0.9988,3.0677,9.2608,-0.0942,0.0641,0.0045,0.009,-0.0113,0.0034,2500,-87.35,-14.6,24.62,106.6,-18.23,6.23,3.1,983.24,61.88,42.496716,-83.4391,769.55,904.6137064,,49.28,10.374194,86.9,17 / 18,203520,2018-07-24 13:18:47:108
-0.8662,3.5521,8.796,-0.9927,3.1041,9.2493,-0.0803,0.3181,-0.1829,-0.0085,0.004,-0.0021,3836,-88.97,-12.83,27.37,104.78,-18.42,6.05,3.1,983.18,64.25,42.496716,-83.4391,769.55,904.6137064,,49.28,10.374194,86.9,17 / 18,204018,2018-07-24 13:18:47:606
-0.9906,3.6945,9.0233,-0.969,3.1603,9.2328,0.1449,0.4906,0.4192,0.0275,-0.0078,-0.002,3840,-88.39,-16.21,28,107.71,-18.6,6.04,3.1,983.15,63.72,42.49672,-83.43893,769.19,904.6137064,,51.91,10.374194,86.6,17 / 18,204519,2018-07-24 13:18:48:107
-0.8818,3.7424,9.9685,-0.9388,3.2095,9.2189,0.1907,0.497,0.1916,-0.0078,0.0107,-0.0135,3802,-90.54,-13.12,26.9,105.35,-19.1,5.81,3.1,983.08,64.909,42.49672,-83.43893,769.19,904.6137064,,51.91,10.374194,86.6,17 / 18,205018,2018-07-24 13:18:48:606
-1.3795,2.9432,8.9934,-0.9359,3.159,9.2366,0.0873,-0.4419,0.1931,-0.0201,-0.0316,0.0051,3836,-89.55,-13.11,28.55,105.94,-18.95,5.99,3.1,983.04,64.032,42.49669,-83.43874,763.98,904.6137064,,55.76,10.374194,87.4,17 / 18,205518,2018-07-24 13:18:49:106
-0.5145,2.5795,9.4457,-0.9152,3.0407,9.2783,-0.0582,-0.8298,0.2495,0.0034,-0.0117,0.011,3818,-89.21,-12.75,27.91,105.44,-18.06,5.63,3.1,983.06,63.071,42.49669,-83.43874,763.98,904.6137064,,55.76,10.374194,87.4,17 / 18,206019,2018-07-24 13:18:49:607
-0.7585,1.9573,9.5366,-0.8803,2.9072,9.3244,0.2396,-1.0572,-0.0957,-0.0485,-0.0167,2.00E-04,3843,-91.61,-13.02,28.76,104.84,-17.24,5.39,3.1,983.06,62.904,42.496696,-83.438545,766.99,904.6137064,,59.04,10.374194,86.9,17 / 18,206520,2018-07-24 13:18:50:108
-0.6257,2.0088,9.8214,-0.8379,2.7473,9.3766,0.1591,-0.7957,0.2603,0.0095,-0.0041,-0.0089,3847,-90.43,-13.87,27.79,104.62,-16.53,5.22,3.1,983.08,62.261,42.496696,-83.438545,766.99,904.6137064,,59.04,10.374194,86.9,17 / 18,207019,2018-07-24 13:18:50:607
-0.6844,2.2265,9.2626,-0.7283,2.526,9.4477,0.2857,-0.4998,-0.4303,-0.0168,0.019,-0.0142,3788,-88.94,-12.53,27.99,104,-15.05,4.44,3.1,983.03,62.721,42.49671,-83.43834,769.7,904.6137064,,58.54,10.374194,86.8,17 / 18,207518,2018-07-24 13:18:51:106
-0.5922,2.3545,9.7388,-0.7713,2.5269,9.444,0.1069,-0.1359,0.0307,-0.0023,-0.0049,-0.014,3829,-89.13,-13.71,27.84,104.65,-14.93,4.67,3.1,983.01,63.891,42.49671,-83.43834,769.7,906.5327694,,58.54,10.374194,86.8,17 / 18,208019,2018-07-24 13:18:51:607
-0.8806,3.0844,9.5354,-0.7614,2.5449,9.44,0.2282,0.4947,0.1978,0.0183,-0.0114,-0.024,3644,-89.73,-13.31,27.15,103.7,-14.92,4.6,3.1,983.05,66.375,42.49672,-83.43814,770.83,906.5327694,,57.78,10.374194,87.4,17 / 18,208519,2018-07-24 13:18:52:107
-0.0323,3.1537,10.7103,-0.6937,2.658,9.4141,0.1028,0.2789,-0.6574,0.0085,-0.0096,-0.0265,3539,-89.09,-13.42,28.16,104.15,-15.73,4.21,3.1,982.96,65.649,42.49672,-83.43814,770.83,906.5327694,,57.78,10.374194,87.4,17 / 18,209019,2018-07-24 13:18:52:607
-0.4164,3.2937,9.2255,-0.7155,2.6952,9.4018,-0.1228,0.4257,0.1916,0.009,0.0297,-0.0145,3761,-91.73,-13.39,28.54,103.85,-15.87,3.92,3.1,982.94,68.306,42.496727,-83.437935,771.24,906.5327694,,58.97,10.374194,88.5,17 / 18,209518,2018-07-24 13:18:53:106
-1.0205,2.8618,10.2365,-0.7245,2.6883,9.4031,0.0221,-0.1976,-0.6393,-0.028,0.0262,5.00E-04,3818,-89.87,-14.37,28.73,104.9,-15.91,4.41,3.1,982.9,66.521,42.496727,-83.437935,771.24,906.5327694,,58.97,10.374194,88.5,17 / 18,210018,2018-07-24 13:18:53:606
-1.2311,2.2325,10.1635,-0.8167,2.6162,9.4159,-0.3298,-0.3633,0.2309,-0.0054,-0.0237,0.0197,3810,-88.19,-12.97,28.99,105.12,-15.67,5.01,3.1,982.94,65.327,42.49673,-83.43773,770.89,906.5327694,,61.81,10.374194,89.5,16 / 18,210518,2018-07-24 13:18:54:106
-1.413,2.0052,9.7113,-0.8736,2.5336,9.4333,-0.309,-0.4762,0.4175,-1.00E-04,0.0179,0.0143,3821,-90.25,-13.6,27.6,104.72,-14.97,5.29,3.1,983.03,66.177,42.49673,-83.43773,770.89,906.5327694,,61.81,10.374194,89.5,16 / 18,211018,2018-07-24 13:18:54:606
-1.4022,2.0734,8.6417,-0.9059,2.4243,9.459,-0.3113,-0.4774,0.4858,0.0076,-0.0083,0.0134,3799,-90.51,-13.92,27.04,104.28,-14.37,5.49,3.1,983.03,66.14,42.496735,-83.437515,770.49,906.5327694,,62.82,10.374194,89.2,16 / 18,211518,2018-07-24 13:18:55:106
-0.6126,1.5912,8.8092,-0.9322,2.3179,9.4831,-0.0794,-0.7995,-0.5424,0.0036,0.0084,0.0135,3777,-90.46,-13.02,25.87,103.46,-13.67,5.61,3.1,983.04,64.744,42.496735,-83.437515,770.49,906.5327694,,62.82,10.374194,89.2,16 / 18,212019,2018-07-24 13:18:55:607
-1.1844,1.145,8.7972,-0.869,2.1763,9.5226,0.0537,-0.8441,-0.015,-0.003,-0.0136,0.0178,3649,-90.41,-14.38,26.59,104.03,-13.27,5.42,3.1,983.03,67.814,42.496742,-83.4373,769.27,906.5327694,,62.21,10.374194,88.5,16 / 18,212519,2018-07-24 13:18:56:107
-0.6855,0.7609,10.4806,-0.9277,1.9883,9.5581,0.14,-1.3793,0.1745,-0.0147,0.0195,0.0124,3750,-90.76,-13.04,26.19,102.65,-11.7,5.54,3.1,983.08,65.561,42.496742,-83.4373,769.27,906.5327694,,62.21,10.374194,88.5,16 / 18,213019,2018-07-24 13:18:56:607
-1.0995,0.7561,10.7785,-0.9393,1.8228,9.5899,0.1323,-1.2819,0.4214,-0.039,0.0074,0.0093,3851,-90.95,-12.93,23.97,102.11,-10.91,5.53,3.1,983.19,66.8,42.496754,-83.4371,770.32,906.5327694,,59.83,10.374194,87.6,16 / 18,213518,2018-07-24 13:18:57:106
-0.7406,0.481,9.1358,-0.8816,1.5821,9.638,0.1038,-0.7857,0.1119,-0.0178,0.0049,0.008,3844,-91.6,-13.76,26,102.31,-9.5,5.25,3.1,983.28,65.398,42.496754,-83.4371,770.32,906.5327694,,59.83,10.374194,87.6,16 / 18,214020,2018-07-24 13:18:57:608
-0.481,0.8447,8.6584,-0.8395,1.4596,9.661,0.0384,-0.6633,0.4048,0.0014,-0.0054,0.0065,3859,-90.61,-13.34,26.04,101.46,-8.62,4.98,3.1,983.28,64.774,42.496758,-83.43693,766.86,906.5327694,,54.54,10.374194,86.8,16 / 18,214520,2018-07-24 13:18:58:108
-0.2118,0.7705,10.1898,-0.7576,1.3134,9.6887,0.5115,-0.986,-0.1114,0.0051,0.0098,-0.0102,3873,-91.27,-11.75,25.59,100.42,-7.7,4.47,3.1,983.35,65.501,42.496758,-83.43693,766.86,906.5327694,,54.54,10.374194,86.8,16 / 18,215019,2018-07-24 13:18:58:607
0.079,0.6102,10.672,-0.6101,1.1849,9.7157,0.661,-0.6208,0.5166,-0.0062,0.0049,-0.0347,3878,-90.81,-12.94,25.74,100.71,-7.15,3.68,3.1,983.41,65.238,42.49677,-83.43676,768.28,906.5327694,,49.68,10.374194,86.5,15 / 18,215519,2018-07-24 13:18:59:107
0.4355,1.2766,11.1972,-0.4768,1.1947,9.7219,1.0969,0.0188,-0.1764,0.0027,-0.0635,-0.0738,3863,-89.19,-13.43,26.07,100.81,-6.98,3.32,3.1,983.47,64.852,42.49677,-83.43676,768.28,906.5327694,,49.68,10.374194,86.5,15 / 18,216019,2018-07-24 13:18:59:607
1.803,1.06,10.7474,-0.0858,1.1763,9.7355,1.8796,-0.1911,0.3319,0.0488,-0.0362,-0.1725,3739,-86.86,-11.74,28.73,100.12,-6.65,0.96,3.1,983.51,64.983,42.496773,-83.43661,770.2,906.5327694,,43.74,10.374194,88.2,16 / 18,216518,2018-07-24 13:19:00:106
2.8259,0.8255,11.0513,0.5503,1.2016,9.7172,2.7282,-0.151,0.9246,0.0441,-0.1147,-0.2763,3697,-87.71,-14.14,27.7,100.62,-6.61,-2.37,3.1,983.52,67.115,42.496773,-83.43661,770.2,906.5327694,,43.74,10.374194,88.2,16 / 18,217019,2018-07-24 13:19:00:607
3.801,1.2873,10.6349,0.934,1.3329,9.6706,2.362,-0.2817,0.1326,-0.0327,-0.014,-0.3585,3627,-89.93,-17.62,29.21,102.76,-7.9,-4.47,3.1,983.53,66.027,42.496777,-83.43647,771.58,906.5327694,,41.94,10.374194,90.7,16 / 18,217518,2018-07-24 13:19:01:106
3.9111,2.4574,9.856,1.3888,1.6466,9.5672,1.8239,0.5836,-1.012,-0.0097,-0.1742,-0.4165,3585,-89.08,-22.61,30.26,105.44,-9.67,-8.26,3.1,983.58,65.112,42.496777,-83.43647,771.58,906.5327694,,41.94,10.374194,90.7,16 / 18,218018,2018-07-24 13:19:01:606
2.9994,1.7719,8.8008,1.6816,2.3188,9.379,1.9078,0.28,0.1228,0.0381,-0.0421,-0.4368,3467,-83.39,-21.38,31.9,105.43,-11.49,-9.74,3.1,983.61,64.944,42.496758,-83.43634,772.43,906.5327694,,39.13,10.374194,100.4,17 / 18,218518,2018-07-24 13:19:02:106
3.4122,3.0844,10.1528,1.8576,2.7357,9.2323,1.5347,2.00E-04,0.2846,0.0244,-0.1373,-0.4406,3415,-81.5,-24,32.49,107.69,-15.57,-11.19,3.1,983.62,62.834,42.496758,-83.43634,772.43,906.5327694,,39.13,10.374194,100.4,17 / 18,219018,2018-07-24 13:19:02:606
3.5139,3.3978,10.7641,1.8691,3.2562,9.0595,1.2954,0.2463,-0.1188,0.0124,-0.0539,-0.4223,3532,-78.7,-23.59,31.65,108.16,-18.7,-11.96,3.1,983.63,63.047,42.496662,-83.43632,772.61,906.5327694,,32.47,10.374194,140.6,17 / 18,219518,2018-07-24 13:19:03:106
1.3424,4.4519,6.262,1.5459,3.7065,8.9467,-0.4964,0.4621,0.0839,0.0128,-0.0652,-0.2356,3451,-75.49,-22.43,30.89,108.72,-21.76,-10.12,3.1,983.6,65.104,42.496662,-83.43632,772.61,906.5327694,,32.47,10.374194,140.6,17 / 18,220018,2018-07-24 13:19:03:606
-0.0287,4.9651,9.131,1.0436,4.0441,8.8728,-1.2039,0.4455,-0.0135,0.0011,-0.0044,-0.1105,3454,-73.39,-22.4,32.32,110.79,-23.93,-7.58,3.1,983.64,65.141,42.49658,-83.436295,771.18,906.5327694,,34.31,10.374194,166.1,17 / 18,220518,2018-07-24 13:19:04:106
-0.2189,4.7581,9.009,0.771,4.1351,8.8587,-1.2119,0.5433,-0.0021,0.0367,0.011,-0.0669,3433,-69.75,-24.03,34.07,114.74,-24.94,-4.97,3.1,983.56,65.547,42.49658,-83.436295,771.18,906.5327694,,34.31,10.374194,166.1,17 / 18,221019,2018-07-24 13:19:04:607
-1.1438,5.0058,8.4814,0.4331,4.3022,8.8019,-1.3255,0.5003,0.0014,0.0244,-0.0128,-0.0258,3424,-69.86,-23.67,31.53,114.16,-25.59,-3.41,3.1,983.53,67.914,42.49647,-83.43628,770.19,906.5327694,,40.82,10.374194,174.4,18 / 18,221520,2018-07-24 13:19:05:108
-1.2359,5.0429,9.6479,0.1482,4.4089,8.7584,-1.3835,0.3415,0.3179,0.0264,0.0025,-0.0079,3413,-69.54,-24.66,33.29,117.15,-26.49,-1.44,3.1,983.43,66.219,42.49647,-83.43628,770.19,906.5327694,,40.82,10.374194,174.4,18 / 18,222019,2018-07-24 13:19:05:607
-0.8758,5.0273,8.8559,-0.0392,4.4238,8.7521,-1.2226,0.0965,-0.031,5.00E-04,-0.0155,-0.0034,3376,-69.71,-25.29,32.81,118.92,-26.75,-0.06,3.1,983.37,67.584,42.49634,-83.43628,769.64,906.5327694,,49.82,10.374194,177.5,18 / 18,222518,2018-07-24 13:19:06:106
-1.3831,4.6002,9.8489,-0.2193,4.4594,8.7313,-0.9951,-0.1455,0.3005,0.008,-0.006,-9.00E-04,3388,-70.57,-24.56,32.77,118.49,-27.05,1.44,3.1,983.3,67.383,42.49634,-83.43628,769.64,906.5327694,,49.82,10.374194,177.5,18 / 18,223018,2018-07-24 13:19:06:606
-1.4285,4.4112,10.337,-0.3543,4.4629,8.7251,-0.8717,-0.335,-0.2825,0.053,-0.0258,0.001,3357,-69.33,-22.39,33.22,117.84,-26.97,2.19,3.1,983.21,67.338,42.496193,-83.43627,768.84,906.5327694,,58.46,10.374194,178.1,18 / 18,223518,2018-07-24 13:19:07:106
-1.1844,4.0558,9.6407,-0.5179,4.4027,8.7475,-0.6532,-0.6663,-0.1472,0.013,-0.0149,-6.00E-04,3236,-68.71,-24.93,31.9,119.89,-26.68,3.39,3.1,982.95,67.339,42.496193,-83.43627,768.84,906.5327694,,58.46,10.374194,178.1,18 / 18,224018,2018-07-24 13:19:07:606
-0.804,3.6048,8.2469,-0.5612,4.3038,8.7939,-0.4995,-1.0136,0.1109,0.0024,-0.0051,0.0022,3183,-68.99,-24.55,33.35,120.2,-26.31,3.53,3.1,982.92,67.961,42.496025,-83.436264,770,906.5327694,,65.45,10.374194,178.6,18 / 18,224518,2018-07-24 13:19:08:106
-0.8519,4.0582,10.7294,-0.6113,4.2443,8.8194,-0.4356,-0.81,-0.2666,-0.0085,-0.0145,0.002,3272,-68.62,-24.3,34.41,120,-25.65,3.96,3.1,982.86,66.757,42.496025,-83.436264,770,906.5327694,,65.45,10.374194,178.6,18 / 18,225018,2018-07-24 13:19:08:606
-1.0528,3.4552,10.5871,-0.6768,4.1439,8.8623,-0.368,-0.8484,0.3695,-0.0187,0.0042,4.00E-04,2980,-68.79,-24.75,35.26,120.93,-25.12,4.31,3.1,982.73,67.222,42.495846,-83.43626,769.85,906.5327694,,70.34,10.374194,178.6,18 / 18,225519,2018-07-24 13:19:09:107
-1.3938,3.0592,8.4263,-0.7986,3.9226,8.9524,-0.4105,-1.3658,0.5276,0.0088,0.0228,0.0103,2399,-68.65,-25.19,33.96,120.54,-23.82,4.8,3.1,982.68,65.976,42.495846,-83.43626,769.85,906.5327694,,70.34,10.374194,178.6,18 / 18,226018,2018-07-24 13:19:09:606
-1.2826,2.3773,9.9876,-0.8428,3.666,9.0565,-0.4756,-1.4635,0.7588,0.0108,7.00E-04,0.019,2897,-69.73,-25.57,34.79,120.83,-22.23,5.27,3.1,982.63,67.582,42.49565,-83.43626,769.99,906.5327694,,73.91,10.374194,178.5,18 / 18,226520,2018-07-24 13:19:10:108
-0.7633,2.3067,10.0355,-0.8751,3.4051,9.1548,0.2313,-1.2733,1.6905,0.0465,-0.018,5.00E-04,2907,-70.2,-25.07,33.22,119.24,-20.37,5.54,3.1,982.62,68.261,42.49565,-83.43626,769.99,906.5327694,,73.91,10.374194,178.5,18 / 18,227018,2018-07-24 13:19:10:606
-0.7071,1.4716,10.9268,-0.7823,3.2197,9.2299,0.2109,-0.9834,0.3585,-0.009,-0.0659,0.006,2697,-70.3,-24.85,34.21,119.31,-19.7,5.6,3.1,982.6,68.676,42.495464,-83.43625,771.97,906.5327694,,74.7,10.374194,177.4,18 / 18,227519,2018-07-24 13:19:11:107
-0.9751,1.9525,7.9669,-0.7533,3.0493,9.29,0.277,-1.2916,0.0518,-0.0374,0.0198,-0.0084,2730,-69.73,-23.68,35.19,117.88,-18.12,4.64,3.1,982.65,66.758,42.495464,-83.43625,771.97,906.5327694,,74.7,10.374194,177.4,18 / 18,228019,2018-07-24 13:19:11:607
-0.5587,1.9286,10.0762,-0.8023,2.8637,9.3448,0.403,-0.8968,0.3067,-0.0217,0.0068,-0.0117,2915,-70.83,-24.17,35.14,116.22,-17.54,4.97,3.1,982.71,66.935,42.49528,-83.43624,771.61,906.5327694,,73.51,10.374194,177.4,15 / 18,228519,2018-07-24 13:19:12:107
-0.9894,1.9693,10.3095,-0.7594,2.7635,9.3785,-0.0126,-0.7217,-0.0321,0.0222,-0.0765,0.0081,2993,-70.22,-22.89,35.35,116.73,-16.37,4.96,3.1,982.72,67.446,42.49528,-83.43624,771.61,901.5142901,,73.51,10.374194,177.4,15 / 18,229019,2018-07-24 13:19:12:607
-0.8159,2.272,9.8716,-0.8126,2.6839,9.3972,-0.0596,-0.425,0.4656,-0.0095,0.0455,-0.011,3115,-69.61,-24.36,33,116.59,-15.89,4.56,3.1,982.73,65.372,42.495106,-83.43623,772.27,901.5142901,,72.14,10.374194,177.6,14 / 18,229518,2018-07-24 13:19:13:106
-1.5087,2.132,9.478,-0.8838,2.5939,9.416,-0.0755,-0.4612,-0.3894,-0.0165,-0.0556,0.0095,3342,-68.66,-23.37,36.43,117.05,-15.34,5.36,3.1,982.73,66.622,42.495106,-83.43623,772.27,901.5142901,,72.14,10.374194,177.6,14 / 18,230018,2018-07-24 13:19:13:606
-1.4752,1.9585,10.1767,-0.7257,2.527,9.4477,-0.0018,-0.2585,0.0374,-0.004,0.0031,0.0031,3368,-71.18,-23.31,35.47,115.8,-15.03,4.77,3.1,982.64,67.633,42.494923,-83.43622,770.48,901.5142901,,71.5,10.374194,177.7,14 / 18,230518,2018-07-24 13:19:14:106
-0.8447,2.5256,10.2712,-0.7613,2.5765,9.4315,-0.1917,-0.25,0.3649,0.0143,0.0104,-0.0019,3368,-70.98,-23.18,34.16,115.6,-15.23,4.62,3.1,982.68,66.418,42.494923,-83.43622,770.48,901.5142901,,71.5,10.374194,177.7,14 / 18,231018,2018-07-24 13:19:14:606
-0.944,2.1966,9.2925,-0.9297,2.4047,9.4617,-0.1702,-0.2366,-0.3556,-0.0245,0.0188,-0.0064,3345,-68.82,-24.1,33.49,116.74,-14.63,5.22,3.1,982.75,62.985,42.49475,-83.43621,768.71,901.5142901,,71.06,10.374194,177.8,14 / 18,231519,2018-07-24 13:19:15:107
-0.9799,2.4144,9.7149,-0.906,2.3378,9.4807,-0.1449,-0.0142,0.2476,0.0034,0.0297,7.00E-04,3346,-68.82,-23.59,33.7,116.68,-13.83,5.34,3.1,982.74,64.288,42.49475,-83.43621,768.71,901.5142901,,71.06,10.374194,177.8,14 / 18,232019,2018-07-24 13:19:15:607
-1.0648,2.26,9.4409,-0.8994,2.3401,9.4808,0.039,-0.122,-0.203,-0.0163,0.0122,-0.0034,3341,-69.18,-22.29,32.84,115.15,-13.93,5.34,3.1,982.75,63.605,42.494568,-83.4362,769.62,901.5142901,,71.24,10.374194,177.7,14 / 18,232519,2018-07-24 13:19:16:107
-1.1749,2.4431,10.276,-1.0126,2.2992,9.4794,0.0375,-0.0925,0.1147,-0.0011,0.0062,-0.0062,3323,-69.01,-23.95,32.47,116.48,-13.53,6.07,3.1,982.7,65.16,42.494568,-83.4362,769.62,901.5142901,,71.24,10.374194,177.7,14 / 18,233018,2018-07-24 13:19:16:606
-1.0672,2.2708,10.2604,-1.1306,2.2507,9.4777,-0.1332,-0.0148,0.6144,0.0128,0.0206,-0.0113,3304,-67.75,-23.75,34.71,117.43,-13.35,6.26,3.1,982.71,64.498,42.494392,-83.436195,767.76,901.5142901,,71.71,10.374194,177.6,14 / 18,233519,2018-07-24 13:19:17:107
-1.2168,2.1476,9.8836,-0.9903,2.2572,9.4918,0.3854,-0.1993,-0.6667,-0.0278,-2.00E-04,-0.0027,3326,-69.92,-23.21,32.74,115.52,-13.31,5.96,3.1,982.72,65.215,42.494392,-83.436195,767.76,901.5142901,,71.71,10.374194,177.6,14 / 18,234019,2018-07-24 13:19:17:607
-1.2215,2.1978,10.5906,-1.1497,2.2048,9.4862,-0.1886,-0.1979,-0.0344,0.0114,-0.0297,0.0104,3300,-67.86,-22.24,32.17,115.48,-12.86,6.91,3.1,982.72,66.537,42.494217,-83.43617,765.65,901.5142901,,71.86,10.374194,178,14 / 18,234518,2018-07-24 13:19:18:106
-0.8542,2.0614,9.3009,-0.9742,2.1222,9.5246,0.0957,-0.1926,-0.113,-0.0201,-0.0327,0.0074,3311,-69.52,-23.12,34.47,115.58,-12.77,6.16,3.1,982.77,64.653,42.494217,-83.43617,765.65,901.5142901,,71.86,10.374194,178,14 / 18,235018,2018-07-24 13:19:18:606
-1.0887,2.0375,10.2209,-1.0336,2.0854,9.5265,0.093,-0.2108,-0.0381,0.0045,-0.0056,-0.0039,3289,-68.77,-23.04,34.34,115.67,-12.28,6.13,3.1,982.8,65.13,42.494034,-83.43616,769.91,901.5142901,,71.75,10.374194,177.7,14 / 18,235518,2018-07-24 13:19:19:106
-0.8794,1.8544,9.6981,-0.9411,2.0658,9.5403,0.0456,-0.0472,-0.1451,-0.0016,-0.0313,-1.00E-04,3304,-69.48,-22.1,34.08,114.81,-12.2,5.83,3.1,982.82,65.526,42.494034,-83.43616,769.91,901.5142901,,71.75,10.374194,177.7,14 / 18,236018,2018-07-24 13:19:19:606
-0.8483,2.1093,9.9625,-0.9683,2.0593,9.539,-0.0602,-0.0777,0.3094,0.0092,-0.0053,-0.0016,3311,-69.14,-21.89,34.89,114.84,-12.08,5.59,3.1,982.85,63.299,42.493855,-83.43615,768.31,901.5142901,,71.21,10.374194,177.9,14 / 18,236520,2018-07-24 13:19:20:108
-0.658,2.0088,9.9111,-1.0178,2.0028,9.5458,0.1966,-0.1591,-4.00E-04,-0.0172,0.0639,-0.0148,3303,-69.11,-22.33,35.34,114.91,-11.78,6.09,3.1,982.89,64.405,42.493855,-83.43615,768.31,901.5142901,,71.21,10.374194,177.9,14 / 18,237019,2018-07-24 13:19:20:607
-1.1677,1.992,10.2461,-1.1236,1.9563,9.5436,-0.0367,-0.0068,0.1053,0,-0.0043,-0.0024,3274,-67.47,-22.62,33.54,116.21,-11.47,6.69,3.1,983,63.044,42.49368,-83.436134,771.7,901.5142901,,70.56,10.374194,178.2,15 / 18,237518,2018-07-24 13:19:21:106
-1.1713,2.1571,9.8309,-1.1418,1.982,9.5362,-0.0267,0.1409,-0.0184,-0.0031,0.028,-0.0054,3277,-68.5,-21.84,33.38,114.69,-11.59,6.67,3.1,982.96,63.186,42.49368,-83.436134,771.7,901.5142901,,70.56,10.374194,178.2,15 / 18,238018,2018-07-24 13:19:21:606
-1.334,2.3964,9.3308,-1.1932,2.107,9.503,-0.0713,0.3385,-0.1177,0.0188,-0.0081,0.0013,3244,-68.14,-21.81,33.74,115.61,-12.07,7.1,3.1,982.98,63.312,42.493504,-83.43613,769.4,901.5142901,,70.16,10.374194,178.4,14 / 18,238518,2018-07-24 13:19:22:106
-1.2622,2.4646,9.6371,-1.2988,2.1718,9.4745,-0.2998,0.2355,0.0741,0.0118,-0.0122,0.0062,3245,-67.48,-21.47,33.92,115.58,-12.45,7.54,3.1,983.07,64.752,42.493504,-83.43613,769.4,901.5142901,,70.16,10.374194,178.4,14 / 18,239018,2018-07-24 13:19:22:606
-1.2239,2.1739,8.9121,-1.2047,2.2709,9.4637,-0.0466,-0.0413,-0.3863,-0.0102,-0.0114,0.0131,3282,-68.15,-22.31,34.43,116.36,-13.43,7.38,3.1,983.07,64.096,42.49333,-83.43613,768.65,901.5142901,,70.96,10.374194,178.5,14 / 18,239519,2018-07-24 13:19:23:107
-1.2179,2.3079,10.0403,-1.156,2.2557,9.4734,0.05,-0.0921,-0.0723,6.00E-04,-0.0054,0.0092,3303,-69.79,-21.3,33.91,114.76,-13.3,6.96,3.1,983.06,64.213,42.49333,-83.43613,768.65,901.5142901,,70.96,10.374194,178.5,14 / 18,240018,2018-07-24 13:19:23:606
-0.9787,2.3234,9.8489,-1.1724,2.2909,9.463,-0.0028,-0.0202,0.1738,0.0138,4.00E-04,0.0045,3318,-69.01,-23.14,34.41,116.51,-13.31,7.02,3.1,983.07,63.843,42.493153,-83.43612,768.22,901.5142901,,71.86,10.374194,178.4,14 / 19,240519,2018-07-24 13:19:24:107
-1.2742,2.3426,9.9841,-1.1692,2.2679,9.4689,0.0597,-0.121,-0.263,-0.0017,-0.0163,0.0032,3289,-64.56,-25.51,27.62,118.8,-13.43,7.02,3.1,982.98,65.513,42.493153,-83.43612,768.22,901.5142901,,71.86,10.374194,178.4,14 / 19,241019,2018-07-24 13:19:24:607
-0.8255,2.2624,9.9374,-1.1475,2.2374,9.4788,0.114,-0.0787,0.0044,0.0045,0.029,-0.0059,3314,-65.58,-25.4,26.47,117.18,-13.24,6.85,3.1,983,65.316,42.49297,-83.43611,768.31,901.5142901,,72.36,10.374194,178.1,14 / 19,241518,2018-07-24 13:19:25:106
-0.8243,2.1595,9.4146,-1.1339,2.2593,9.4752,0.2336,-0.1853,-0.2938,0.0064,-0.043,0.0038,3307,-65.23,-24.82,29.73,118.54,-13.32,7.14,3.1,983.02,64.48,42.49297,-83.43611,768.31,901.5142901,,72.36,10.374194,178.1,14 / 19,242019,2018-07-24 13:19:25:607
-1.2,2.1811,9.5629,-1.1203,2.2735,9.4735,-0.0424,-0.0569,0.0996,0.0101,-0.0305,0.0037,3323,-65.46,-23.93,28.57,117.47,-13.37,6.77,3.1,983.04,65.471,42.492786,-83.4361,766.9,901.5142901,,72.43,10.374194,178.1,14 / 19,242518,2018-07-24 13:19:26:106
-1.0756,2.1787,8.9731,-1.022,2.2828,9.4823,0.1533,-0.0847,-0.1026,0.0016,0.0126,-0.0046,3341,-65.96,-24.22,29.35,116.89,-13.46,6.15,3.1,983.01,64.031,42.492786,-83.4361,766.9,901.5142901,,72.43,10.374194,178.1,14 / 19,243018,2018-07-24 13:19:26:606
-0.9835,2.3366,9.9434,-1.0423,2.2525,9.4874,0.0484,0.0032,0.1131,0.001,0.0123,-0.0036,3333,-66.7,-25.31,28.26,117.02,-13.33,6.22,3.1,983.07,63.608,42.492607,-83.4361,767.41,901.5142901,,72.43,10.374194,178.3,15 / 19,243519,2018-07-24 13:19:27:107
